Rot_X (deg),Rot_Y (deg),Rot_Z (deg),Gyro_Time (ns),Gyro_X,Gyro_Y,Gyro_Z
0.0,0.0,0.0,1551910347135035.0,0.17470719,-0.20599127,0.12061514
0.3620744649056356,-0.057485347612982046,-0.05527390313161007,1551910381728889.0,0.15027261,0.26070938,-0.17993031
0.46768665858735753,0.9379345082765612,-0.4483368899383132,1551910413691858.0,-0.061086584,0.6883147,-0.16649128
0.09572423802505675,1.870598288987256,-0.3711359075614714,1551910448105608.0,-0.27000234,0.14586681,0.27088785
-0.3638255913744713,1.734381599942287,0.32132521896752275,1551910480068994.0,-0.19181164,-0.1778915,0.40649983
-0.6844255451428609,1.6335837808207803,0.944438255523409,1551910514484358.0,-0.1527163,0.16541448,0.13405417
-1.0086129867693985,2.243828959507249,0.7664500974752739,1551910546442119.0,-0.17837262,0.43419495,-0.27278173
-1.1606005925159284,3.109030310928193,0.14723919929369045,1551910580855504.0,0.072081916,0.36455637,-0.2764469
-0.7110262078527478,3.725731863812896,-0.22574693384201583,1551910615275973.0,0.31887126,0.28514397,-0.06997465
-0.21192684651182514,4.165614686995244,-0.14386030781618653,1551910647234566.0,0.16982028,0.13487124,0.116949946
-0.11357716569724052,4.219604238687182,0.1554154886578285,1551910681652119.0,-0.04031719,-0.04838817,0.16826259
-0.13405236455107605,4.100712536440807,0.4372394371695205,1551910713606494.0,0.07696884,-0.0789314,0.13649762
0.2586470685025029,3.9072522964235277,0.6839277787864516,1551910748022431.0,0.26511517,-0.15467864,0.08640672
0.6394465311199777,3.466798363951136,0.7012394622355629,1551910779988264.0,0.10629033,-0.29151234,-0.05409217
0.7394587120168159,3.007425837057508,0.5680031323371882,1551910814402483.0,0.039095223,-0.16323075,-0.06264427
0.9784207908901463,2.727796768821627,0.4761149077705372,1551910846361598.0,0.2626717,-0.1119181,-0.0223272
1.7154324377070185,2.3896991437885737,0.4547909837129571,1551910880777691.0,0.40072715,-0.252417,-0.012553364
2.3324816885973014,1.905214143159737,0.45796703936759414,1551910915191806.0,0.18325931,-0.17422631,0.038759273
2.467493856605568,1.5822726132988536,0.7147660121762252,1551910947147431.0,-0.018326059,-0.2438649,0.27577478
2.3813936977368115,0.8405378153971185,1.5713288617312484,1551910981570035.0,-0.05986486,-0.5224192,0.51889896
2.1789186523571518,-0.2085656305044168,2.4256648578168996,1551911013529619.0,-0.17226397,-0.4564458,0.3295309
1.71753131866075,-0.4764008033182847,2.619853250272206,1551911047941858.0,-0.25900677,0.18374044,-0.13106112
1.3067189373116692,0.2981506249897491,2.169692187336814,1551911082363525.0,-0.0989602,0.4855076,-0.21047355
1.3345436988542316,0.9980832178538773,1.9776165357845708,1551911114317066.0,0.0965165,0.25460073,-0.012553364
1.5168057969004942,1.1565476765993945,2.055605028540001,1551911148735139.0,0.07819056,-0.033727415,0.0815198
1.6345804803965271,1.1175434077932578,2.254566549326526,1551911180697171.0,0.04398215,0.037132896,0.12183687
1.6375552458972127,1.3840702791377089,2.426967456866565,1551911215113316.0,-0.036652,0.1580841,0.031428892
1.550667603521587,1.6025782913447024,2.4727166143156603,1551911247071910.0,-0.045204107,0.09088899,0.03631581
1.4699049407094362,1.8607051609512308,2.4738801703597018,1551911281489514.0,-0.036652,0.18496215,-0.043096602
1.3656923101744434,2.1543756066790642,2.401416930770103,1551911313444619.0,-0.09651675,0.087223805,-0.024770662
1.0807048167363769,2.1453652131633243,2.361718022572221,1551911347862014.0,-0.1734857,-0.10092253,-0.017440282
0.8091923330840718,1.9394985876601796,2.354879725102639,1551911379823577.0,-0.10384712,-0.07526621,0.015546411
0.6215047522876749,1.782963321785378,2.4185182288394467,1551911414239723.0,-0.1197296,-0.10947464,0.048533108
0.343954776719183,1.5301092322227778,2.5315548314028704,1551911446199150.0,-0.15638149,-0.16567418,0.06685905
0.11732973696061882,1.0825491992906437,2.636405802453687,1551911480615244.0,-0.043982375,-0.30006444,0.025320247
0.2133169191977639,0.4809017858870597,2.5939068947990176,1551911515027796.0,0.13072494,-0.162009,-0.077305034
0.4401165048906566,0.44434751421763186,2.395268748240796,1551911546982744.0,0.08185575,0.072563045,-0.10540481
0.5688286613466982,0.5563495205162321,2.266582408353433,1551911581403108.0,0.07086019,-0.08259659,-0.0064447187
0.8981781639366353,0.06514562358940446,2.4056064844039775,1551911613367171.0,0.320093,-0.37581167,0.10351093
1.7516522008828965,-0.22902703862508758,2.4731824812009893,1551911647780244.0,0.3909533,0.22650096,-0.028435849
1.9299768359879126,0.5327680021849657,2.382431754830012,1551911679742587.0,-0.21258104,0.42930803,-0.043096602
1.303477126835297,0.6798574699496608,2.439070263731438,1551911714153994.0,-0.23701563,-0.26463428,0.080298066
1.3475768738670106,0.39891590107965513,2.525856882689963,1551911746110296.0,0.25167614,0.12754086,-0.021105472
1.9023261662390079,1.2531797581979132,2.2394956779608832,1551911780524775.0,0.19058968,0.55025923,-0.23490812
1.9204384142368442,2.1067436105757453,1.795547098279072,1551911814952223.0,-0.13072516,0.27903533,-0.20314316
1.7560258394621377,2.7028137947895483,1.391109124502252,1551911846906077.0,0.012217178,0.41342556,-0.22635601
2.012312886441313,3.4954777167510738,1.0215354850225102,1551911881328577.0,0.19425486,0.29369608,-0.11884384
2.3260874045582995,3.92258554706344,0.8819597926586539,1551911913281962.0,0.11362072,0.19717944,-0.0797485
2.490062025921564,4.360874770501314,0.6263985521418135,1551911947701650.0,0.10140342,0.2729267,-0.14450015
2.8186240339751967,4.7209576593212175,0.5197228342437415,1551911979657848.0,0.23457193,0.042019814,0.058306944
3.292085898867313,4.479109961806452,0.780323662271047,1551912014079254.0,0.21380255,-0.24753007,0.14871491
3.6895103349485883,3.9162250254098256,1.0362869931093543,1551912048492379.0,0.18203758,-0.31839037,0.09618056
4.045634817930678,3.375933661947901,1.1080236255639089,1551912080450296.0,0.20647216,-0.2194303,-0.0076664463
4.506846694761477,2.9177861281308277,1.0067247700124553,1551912114867587.0,0.24923268,-0.2939558,-0.08585714
4.892371150523127,2.29795733793903,0.9032865503076576,1551912146823889.0,0.12705974,-0.27929503,-0.028435849
4.9012084083255605,1.952159731521578,0.813450182716364,1551912181248212.0,-0.10384712,-0.12657884,-0.039431415
4.582183465402179,1.5830182390130383,0.9313867744166382,1551912213203421.0,-0.21868968,-0.2988427,0.18658853
4.125696129795091,0.9665833414023862,1.3906999378693095,1551912247623369.0,-0.2492329,-0.24264315,0.20735793
3.607521340444265,0.7062042586415153,1.615998935780838,1551912279577119.0,-0.2809979,-0.049609892,0.048533108
3.1763214677611886,0.6243064265638896,1.713499912777328,1551912314000035.0,-0.15638149,-0.058162004,0.053420026
2.785109068742612,0.4969086312791736,1.7761759169610678,1551912348412119.0,-0.25045466,0.011476576,0.011881223
2.3355342290077026,0.5972042422075858,1.8250750722508098,1551912380371806.0,-0.18936817,0.0017027408,0.05586348
2.2013091100897038,0.5822438520432864,2.0366759411573487,1551912414791962.0,0.035430036,0.035911165,0.12428033
2.2445338569183013,0.6866519593770608,2.194512500182084,1551912446750764.0,-0.037873726,0.03957635,0.049754836
2.0023338341907997,0.760766493126032,2.38318838934381,1551912481168629.0,-0.19914201,0.03224598,0.15238011
1.6720214042631811,0.9131245624966956,2.694324811385377,1551912513127066.0,-0.06353005,0.2240575,0.143828
2.0559708421610896,1.742625937865098,2.7895507875930687,1551912547544566.0,0.3836229,0.44274706,-0.05409217
2.6607701221787896,2.322071126412986,2.5811126514452294,1551912579503212.0,0.14905088,0.19840118,-0.15549572
2.451732563172023,2.6688354349573125,2.2316639876455,1551912613914514.0,-0.29932383,0.17396659,-0.17015646
1.9189452888296916,3.0191872313597865,1.9659527598241104,1551912648332639.0,-0.14172073,0.16297102,-0.07363984
1.947470045372397,3.225882746955357,1.87143953628104,1551912680295244.0,0.14905088,0.028580789,-0.052870438
2.3830444501050985,3.175134887175438,1.7840531678776443,1551912714713212.0,0.28832802,-0.028840497,-0.034544498
3.0238936960121015,3.0610556834105958,1.6933024434403994,1551912746672327.0,0.42516172,0.002924472,-0.0760833
4.17259253690938,3.520519883837923,1.4957536552355246,1551912781088369.0,0.72815067,0.44519052,-0.09563097
5.620103650994696,4.332714868469171,1.4077154205016353,1551912813048525.0,0.69272053,0.24238342,0.030207165
6.352827809796657,4.090342162564752,1.8576660981331767,1551912847464306.0,0.040316954,-0.4527806,0.42849097
6.315290126433969,3.2825635115514693,2.6480396420783867,1551912879418160.0,0.034208313,-0.22065201,0.2598923
6.5843521653520725,3.832240145145826,2.471228343882141,1551912913841077.0,0.18692449,0.7017537,-0.3424203
6.79601426582846,4.895034894549378,2.0023904431307598,1551912945799046.0,-0.004887034,0.13487124,-0.030879311
6.5654517321173085,4.157150096292308,2.441841134596906,1551912980212639.0,-0.15515976,-0.5517407,0.338083
6.277926751127859,3.6933150742900365,2.7730544107391886,1551913014633421.0,-0.18448126,0.07622824,-0.10784827
5.778826949325631,4.052697956793881,2.2719290298114396,1551913046588733.0,-0.30421075,0.194736,-0.3130988
5.354014573149168,4.163124961414797,1.7164180674001193,1551913081010452.0,-0.061086584,-0.033727415,-0.29477286
5.502851728203536,4.228420602950501,1.0204303741829392,1551913112964202.0,0.18203758,0.13975817,-0.4083937
5.870088688947538,4.721397271402509,0.4321944388562015,1551913147381546.0,0.13683358,0.33156967,-0.11884384
5.9579383977201354,5.312654961790061,0.5759435055227442,1551913179342744.0,-0.051312752,0.27903533,0.24523154
5.7962382947581785,6.00539395780955,1.104294120569329,1551913213761598.0,-0.0781908,0.44274706,0.16704085
5.74627562035141,6.925301378237759,1.1178433028886414,1551913245721285.0,0.0378735,0.4561861,-0.09196578
5.887150264043451,7.693377820529782,1.077531892302584,1551913280133473.0,0.07941229,0.33279142,0.13405417
5.988999959550405,8.231698054477853,1.6222056237281823,1551913312092587.0,0.010995447,0.21794885,0.3710697
5.96764974531007,8.488074931642265,2.1846812161576556,1551913346506337.0,0.013438909,0.092110716,0.16337568
6.01376199148542,8.662745479277705,2.29701781367985,1551913378461962.0,0.021991014,0.16052756,-0.040653147
6.064249217262054,9.298347027657414,2.078819041333693,1551913412885973.0,0.018325828,0.3865475,-0.13839151
6.050773996155134,9.849948639588186,1.9237952205612907,1551913447302275.0,-0.047647562,0.11165839,0.022876788
5.964848852974478,10.007994204592501,2.225656655530073,1551913479262275.0,-0.030543353,0.05057192,0.3050963
5.875248712372749,10.11913980808155,2.8644803208791614,1551913511220452.0,-0.10384712,0.099441096,0.2562271
5.508186293910471,10.255116790922362,2.7888189335798277,1551913545642171.0,-0.22235487,0.04446327,-0.28744248
5.28191126919881,10.471612303341141,2.2012436400767927,1551913577601129.0,-0.007330493,0.22527924,-0.2336864
5.363548467344768,11.034063909608722,2.020757344072729,1551913612019619.0,0.052534252,0.29736125,-0.024770662
5.383673232706298,11.245134427423087,1.9269441209729012,1551913643977744.0,-0.018326059,-0.08137486,-0.043096602
5.222935637032338,10.918849294202934,2.02313259571666,1551913678390764.0,-0.19303337,-0.19866088,0.12428033
4.6309984158349735,10.55023279361151,2.2555190849917026,1551913710349723.0,-0.41172293,-0.19988263,0.12550205
3.9427237701614697,10.193672690817783,2.4727199505686874,1551913744770660.0,-0.17226397,-0.05571854,0.08640672
3.9741360095067693,10.344087159090762,2.615458387866597,1551913779184202.0,0.14416397,0.17641005,0.0607504
4.14117314918507,10.571257656460785,2.7215824965631965,1551913811146858.0,-0.020769518,0.020028682,0.053420026
3.860473160091212,10.479209832165495,2.8314209624463227,1551913845561129.0,-0.20158547,-0.071601026,0.04242446
3.6157356518176806,10.46750553960771,2.8760326213416456,1551913877523837.0,-0.03420854,0.05057192,0.0192116
3.725985321202484,10.651869981808126,2.9079086527903986,1551913911947796.0,0.095294766,0.06523267,-0.02965758
3.887334957770034,10.620303206506536,2.608120593086406,1551913943910869.0,0.06841673,-0.04350125,-0.25567752
4.061459573456579,10.472167931769937,2.224284463107203,1551913978313889.0,0.17837238,-0.10458773,-0.078526765
4.718933794259777,10.182370270714264,2.109248112719115,1551914012734566.0,0.45448324,-0.14979172,-0.11884384
5.549307884617775,9.961803659967256,1.665085182364173,1551914044693837.0,0.38850984,-0.04350125,-0.33508992
6.131094668595481,10.13601810273074,1.1016992237397916,1551914079104983.0,0.18448102,0.10310628,-0.14083497
6.407944216867174,9.94861395198024,1.000011002708029,1551914111069358.0,0.18448102,-0.2536387,-0.07119638
7.023068459913715,9.761016202987683,0.6455748480150748,1551914145489671.0,0.3824012,0.22894442,-0.20192143
7.57134277987745,10.682848599030757,0.6541365328564451,1551914177445087.0,0.12583801,0.51849425,0.2879921
7.368605217554652,10.828100568371394,1.882924081136744,1551914211863160.0,-0.27122405,-0.36725956,0.7950098
6.903805392350877,10.242046759566428,3.0770222878897537,1551914243821233.0,-0.1734857,0.02613733,0.38206524
6.8517426987359045,11.346560415970934,3.1874732475179868,1551914278235764.0,0.11362072,0.82759184,-0.15549572
7.13515474086766,12.539030080432134,2.9207601555795537,1551914310194879.0,0.16615508,0.39998654,-0.11762211
7.517354184318098,13.076981708428484,2.6917114007138445,1551914344614462.0,0.23212847,0.23016614,-0.110291734
7.983028579462334,13.600339468264487,2.610848160116844,1551914376574514.0,0.2370154,0.29980472,0.044867918
8.343528045698315,14.003366219633167,2.838724015371972,1551914410991129.0,0.13194667,0.0664544,0.13283244
8.635252589602114,13.928049478479718,3.0160730528222452,1551914442945191.0,0.21013735,-0.122913666,0.052198295
9.187114404585968,13.64754540299334,3.0269972397360974,1551914474904931.0,0.3750708,-0.16445246,-0.013775095
9.99570098983194,13.359935234495673,3.076985754568074,1551914509322066.0,0.38850984,-0.1204702,0.07052423
10.585537770670669,12.98781874314719,3.23840980832645,1551914541278369.0,0.24068058,-0.29762098,0.1022892
11.011487179872697,12.26410892747391,3.3597107578467695,1551914575703212.0,0.22846329,-0.38802895,-0.010109909
11.603248956379813,11.605605168119203,3.2728100278259484,1551914607661389.0,0.42271826,-0.25852564,-0.06630946
12.564697903953777,11.363407464724858,3.086198732348126,1551914642079619.0,0.46914402,-0.06915756,-0.09929617
13.324109544184687,11.234959672427886,3.0281248386205197,1551914676496129.0,0.2700021,-0.10458773,0.07174596
13.62309656878404,10.883580659385371,3.3043487858781044,1551914708451077.0,0.07819056,-0.22920412,0.17925815
13.751721226420115,10.685745426531485,3.4954746735688267,1551914742870764.0,0.09773823,0.059124023,-0.008888178
14.03670826564589,10.91440342983887,3.4043739461884113,1551914774831285.0,0.17470719,0.14586681,-0.055313893
14.267095332822773,11.42015509689044,3.1916876767061155,1551914809245139.0,0.017104097,0.3450087,-0.2006997
14.240320123405056,12.08865660952296,2.71431413798959,1551914843666285.0,0.034208313,0.27781358,-0.18115203
14.508507178134211,12.294564630739789,2.699600839641638,1551914875624983.0,0.2211329,-0.019066662,0.12794551
14.905319117319108,12.512460144904493,2.842387408688846,1551914907579983.0,0.16615508,0.2912526,-0.07119638
15.077256237153145,13.265836590063778,2.4082388344962316,1551914941995921.0,0.0378735,0.38776922,-0.27889037
15.18251843183078,13.923944220722873,1.9625009104850166,1551914973960973.0,0.08796439,0.32301757,-0.17504339
15.37466802129465,14.448770869593462,1.741414642917404,1551915008374254.0,0.09285132,0.21184021,-0.09563097
15.552292645356701,14.827666253799254,1.4789890507395171,1551915040332223.0,0.102625154,0.21428367,-0.15671745
15.746629736402669,15.310930438213859,1.2857277606479351,1551915074754983.0,0.10140342,0.28514397,-0.028435849
15.97185432457182,15.788613224454526,1.2938519498367644,1551915106714202.0,0.13561185,0.18862733,0.039981
16.20582888841607,15.97805266088017,1.4399153796788422,1551915141131598.0,0.084299214,0.022472143,0.092515364
16.312228583294733,15.94254839027954,1.6170894221391152,1551915173090608.0,0.042760417,-0.07282276,0.08518499
16.493265695927754,15.721700673116974,1.6907029164143017,1551915207507066.0,0.16371164,-0.14001787,-0.028435849
16.97425258080392,15.441021608155312,1.4889147734478283,1551915239461181.0,0.3408624,-0.16689593,-0.18115203
17.669701763164806,15.16172394014053,1.1229286282720095,1551915273879827.0,0.33108857,-0.11436156,-0.14816535
18.251313533603003,14.932301226178414,0.8692048843171131,1551915308296233.0,0.2712238,-0.11558329,-0.10173963
18.882187781967225,14.685572129214082,0.7501041782397504,1551915340256494.0,0.42516172,-0.1204702,-0.021105472
19.655861888704983,14.80186162402893,0.7500427354289584,1551915374677431.0,0.2125808,0.29980472,-0.005222991
19.517436791564183,15.698494038492747,0.6890419842077522,1551915406636494.0,-0.32986706,0.53804195,-0.010109909
18.814199640982128,16.26882065110757,1.22351759743894,1551915441054879.0,-0.23090698,-0.0129580125,0.6251894
18.784186949571534,15.934154123204568,2.722990540443566,1551915473013160.0,0.20036352,-0.18033496,0.82555306
19.23586133320099,16.313380883638846,3.9117031158096838,1551915507426546.0,0.085520945,0.46840337,0.35030028
19.000661310823592,17.228125804647707,4.4766768414681835,1551915539385869.0,-0.2858848,0.38043886,0.34052646
18.564736443349084,17.56089011435395,5.198752298611839,1551915573807066.0,-0.012217411,0.09699764,0.2892138
19.04791080853628,17.980279351034426,5.421290666543671,1551915608221233.0,0.4080575,0.32179585,-0.07363984
19.706172536910575,18.755286880962878,5.115902607447683,1551915640179046.0,0.21868944,0.46229473,-0.1921476
19.778534741896074,19.37067593901465,4.883178854874425,1551915674601910.0,-0.08307772,0.105549745,-0.043096602
19.744147051102825,19.46642155509772,4.856740574690458,1551915706560921.0,0.10140342,0.054237105,-0.036987953
20.204133932708476,19.577723559005015,4.6471168005762395,1551915740977796.0,0.31520608,0.0017027408,-0.14450015
20.706120787910073,19.441244371050754,4.44016616169978,1551915772932848.0,0.1624899,-0.13024405,-0.06630946
20.718720540306286,19.273509111835065,4.326267314091028,1551915807354723.0,-0.11850787,-0.049609892,-0.09563097
20.502245506903122,19.153042412637916,4.022279252443778,1551915839309098.0,-0.062308315,-0.07282276,-0.18970414
20.55772022527753,18.965007168929603,3.7857930016957497,1551915873731650.0,0.07696884,-0.10947464,-0.039431415
20.595257460257773,18.953721776802304,3.774356569284964,1551915908146441.0,-0.07086042,0.11288012,0.022876788
20.3958449073814,19.098904854700333,3.919593138952463,1551915940103629.0,-0.09407329,-0.027618766,0.16337568
20.31499473987646,18.816719690103326,4.568693656064338,1551915974524983.0,-0.030543353,-0.22553894,0.4663646
20.050482245115102,18.4439906932641,5.435104621658417,1551916006484462.0,-0.2981021,-0.17178285,0.37717834
19.27925766688041,18.32420539307727,5.835880346969685,1551916040897691.0,-0.34208435,0.040798083,0.052198295
19.053770141861673,18.464050974417347,5.928791964829012,1551916072860764.0,0.103846885,0.099441096,0.097402275
19.357132149213577,18.65331541363279,6.162792812037826,1551916107274671.0,0.07574711,0.028580789,0.08762844
19.209257042550988,18.490392652698095,6.35549370005978,1551916141692066.0,-0.18814644,-0.16567418,0.12428033
18.865469614296767,18.185301102269115,6.530742741766662,1551916173651077.0,-0.13072516,-0.09603562,0.006994307
18.895656851999796,18.208053181055746,6.252256523438741,1551916208071441.0,0.18325931,0.086002074,-0.24834715
19.434831174079545,18.349736258742908,5.766531147965143,1551916240026910.0,0.31764954,0.053015374,-0.25567752
19.843543091865197,18.471013253618306,5.198770206803069,1551916274450035.0,0.067195006,0.1079932,-0.30576843
19.9215928093293,18.68138376799572,4.704732328125033,1551916306409150.0,0.08185575,0.06889786,-0.18481722
20.3431672180887,18.648135894029423,4.531246025738815,1551916340825921.0,0.33841893,-0.06915756,-0.036987953
21.087966362585146,18.59058164284145,4.3724203526984695,1551916372785869.0,0.42394,0.038354624,-0.13716978
21.825415504218036,18.64395869612154,4.153346584847451,1551916407199983.0,0.30176705,-0.02395358,-0.032101035
22.37780230682182,18.351361028852473,4.253997556484619,1551916441620973.0,0.29321495,-0.28906888,0.08274153
23.0435890179379,17.680782272057648,4.388034134530101,1551916473580087.0,0.41416615,-0.39902452,0.06197213
23.94562552520496,17.059709883417295,4.394622686725546,1551916507994879.0,0.45937017,-0.1778915,-0.07363984
24.773199609492803,16.93408068329677,4.17165956411969,1551916539952796.0,0.45937017,-0.033727415,-0.13106112
25.876136002611968,16.523620616775567,3.9681607796673255,1551916574373941.0,0.69516397,-0.3489336,-0.08707887
27.332834610249964,16.079754184201434,3.7317226630320457,1551916606332900.0,0.7684677,-0.02517531,-0.18848242
28.49667093092065,16.633280804692145,3.32329905302524,1551916640751129.0,0.3616318,0.45496437,-0.14694361
28.961820333431575,17.2116760053951,3.3909231846125234,1551916672709462.0,0.22479811,0.078671694,0.23667943
29.490844655888175,17.005090782671076,4.150186110782917,1551916707123421.0,0.26878035,-0.14123961,0.43582135
29.878294118777372,16.91734905246457,4.677184878249852,1551916739087587.0,0.13683358,0.09455418,0.052198295
30.06011871885634,17.375238257516752,4.311548745757485,1551916773503941.0,0.095294766,0.32179585,-0.33264646
30.502518110327998,17.922464876883073,3.72121281697919,1551916807920504.0,0.35918835,0.22283578,-0.19703452
31.283542230672268,18.324810236904735,3.5397246581472377,1551916839876129.0,0.40317062,0.17885351,-0.02965758
31.786929074871484,18.51521217044838,3.455925787413892,1551916874298941.0,0.084299214,0.08233688,-0.083413675
31.7932288545835,18.826382598108047,3.152725229398653,1551916906253785.0,-0.0085522225,0.25582245,-0.21291701
32.04260340834759,19.339834244968376,2.837226540185261,1551916940674879.0,0.27977592,0.15686238,-0.06630946
32.77156507334358,19.26241750470541,2.9376631482348294,1551916972634879.0,0.45203978,-0.18888706,0.15726702
33.469026753487334,18.819582467066038,3.1812889876081907,1551917007051702.0,0.20647216,-0.21332166,0.022876788
33.68401385109156,18.445715967805572,3.115475738807859,1551917039006650.0,0.07086019,-0.18277842,-0.044318333
33.90136342743455,18.09029336814928,3.0992268110954546,1551917073429202.0,0.1417205,-0.14979172,0.028985437
34.162287971029784,17.881958141667223,3.211165271719293,1551917107843837.0,0.09285132,-0.10580944,0.074189425
34.2703501635413,17.65342903574395,3.381339319415805,1551917139801389.0,0.042760417,-0.09603562,0.1230586
34.40186231854743,17.548518721950277,3.788677526053683,1551917174223056.0,0.107512064,-0.049609892,0.30998322
34.69157435850908,17.413614535258308,4.509926126317269,1551917206181962.0,0.19669832,-0.07404449,0.40527812
35.10413627436376,17.438379114176932,5.088501693847652,1551917240603316.0,0.18814622,0.067676134,0.17559296
35.31326088051354,17.549962217065666,5.3304256738173486,1551917272558785.0,0.0048868014,0.06889786,0.09495883
34.99458591821662,17.631164245458336,5.408501661777379,1551917306972327.0,-0.31764978,-0.010514554,-0.027214117
34.31339877121184,17.502103952254277,5.295302814540249,1551917341387535.0,-0.26755887,-0.09603562,-0.063866004
34.127461211419515,17.398262235616624,5.197989593234913,1551917373349202.0,0.041538686,-0.028840497,-0.060200818
34.2533733701849,17.30008941790661,4.920378371772631,1551917407767691.0,0.010995447,-0.047166437,-0.21780391
33.9927108711148,17.28409762752201,4.433865484430753,1551917439726441.0,-0.2981021,0.07134132,-0.30210322
33.09329891448468,17.754849311802303,3.7965420947442703,1551917474148577.0,-0.5949823,0.3608912,-0.2923294
31.854474803630293,18.211182117111054,3.3040792183168763,1551917506107744.0,-0.65851223,0.08844553,-0.26911655
30.816550469049847,18.408409048996063,2.7608182532774377,1551917540524514.0,-0.35063645,0.20206636,-0.25323406
30.408013099705208,19.012091723795706,2.3302178068910377,1551917572484514.0,-0.12705998,0.35966945,-0.18970414
30.161263070014304,19.481005919535463,2.2023189678926496,1551917606896546.0,-0.17837262,0.03957635,0.06441559
29.506500891219556,19.294283173023526,2.513319751486783,1551917641319723.0,-0.47525287,-0.20599127,0.24278808
28.51241404957208,18.661766894224808,3.0383060056293782,1551917673278941.0,-0.5229003,-0.4222374,0.27088785
27.74232697447482,17.94103208526964,3.3133443223761954,1551917707696025.0,-0.24068081,-0.21698684,-0.0015578009
27.35312709257643,17.81811538668405,3.283843543647101,1551917739657066.0,-0.23335044,-0.005627636,0.052198295
26.78805232724316,17.823279981736647,3.6937192562426313,1551917774072744.0,-0.3433061,-0.11802674,0.34052646
26.21799009465117,17.221738680116722,4.411117861588455,1551917806032014.0,-0.21013758,-0.46133274,0.36984795
26.056902501018772,16.82930359331728,4.852581054346828,1551917840450764.0,0.0012216112,0.34745216,0.04364619
25.861777449378312,18.17691065216444,4.89841771127479,1551917872408733.0,-0.28221962,0.80804414,0.11817168
24.923428035863004,18.818812196941646,5.452930803228137,1551917906822796.0,-0.5852085,-0.20721301,0.3588524
23.76764134034697,18.413602123789616,5.929131462530843,1551917941238004.0,-0.56688255,0.049350187,0.058306944
22.632067140530353,19.150809677553337,5.773193283279559,1551917973203212.0,-0.68172514,0.5930198,-0.19947799
21.221305658313472,20.081285977738148,5.2724572672806485,1551918007621702.0,-0.6511819,0.26193112,-0.25201234
20.281993768807983,20.445043873576164,4.816744335699882,1551918039575244.0,-0.32986706,0.25582245,-0.2678948
19.91729384570025,21.251620277221157,4.124470997520636,1551918073998577.0,-0.10262539,0.43297324,-0.39495468
19.66179384362875,21.741990557511848,3.5309457099187047,1551918105957952.0,-0.19547683,0.056680568,-0.21413873
19.14291905383467,21.59114278633678,3.152097074055614,1551918140370504.0,-0.32009324,-0.1204702,-0.22879948
18.414569451719526,21.542951025968986,2.622971737707329,1551918172334723.0,-0.47891805,0.08844553,-0.30210322
17.255545236696186,21.64112804174077,2.1253857176153326,1551918206751546.0,-0.659734,-0.08137486,-0.19336933
15.972358666774836,21.20968659228958,1.8401226400721744,1551918238706285.0,-0.69272065,-0.37825513,-0.10907
14.65837211244449,20.274926957031198,1.7278862897381826,1551918273129306.0,-0.62552553,-0.45888925,-0.014996827
13.399860524307112,19.712742021077812,1.6138999400865774,1551918307541598.0,-0.6365211,-0.13146576,-0.10662654
12.190961395338144,19.408350474673057,1.5133492148870378,1551918339500608.0,-0.6536253,-0.20110434,0.057085212
10.890362339368515,18.988527920182133,1.8861249509016393,1551918373918264.0,-0.6536253,-0.19255224,0.27944
9.56080081116493,18.590948944491963,2.555573598579376,1551918405878837.0,-0.8014546,-0.26585603,0.44559518
7.7959271267410495,17.92157658829324,3.4689239023564302,1551918440296337.0,-0.88941914,-0.31106,0.43826482
6.634802918266152,17.861309826746783,4.317309897897409,1551918472259254.0,-0.24190255,0.26193112,0.48102534
6.8283525217229215,18.587386288280882,5.2637351658590354,1551918506672952.0,0.22968501,0.36333466,0.44193
6.625352476404737,19.070144066813057,6.070121192817444,1551918538629254.0,-0.59620404,0.13487124,0.45536903
4.47871644728937,19.18809606355795,6.94313402521507,1551918573055191.0,-1.3500112,0.053015374,0.35396546
2.0612681448107346,19.265623096835707,7.416972178706746,1551918607472379.0,-0.9004147,0.017585224,0.11817168
1.0999937717473707,19.302656264747228,7.434021358662903,1551918639430764.0,-0.1942551,0.033467706,-0.0797485
0.8522812458695286,19.503120694367155,7.11721017082074,1551918673849306.0,-0.21746796,0.18496215,-0.25445578
0.019456755396414005,19.949303506498545,6.510384887688752,1551918705808525.0,-0.6524036,0.28147876,-0.36196798
-1.5216795792960038,20.330717780761887,5.897473975591419,1551918740225452.0,-0.82711095,0.10066283,-0.22391255
-2.985903481937786,20.39032592846876,5.580098426326403,1551918772185608.0,-0.7195987,-0.02517531,-0.13594805
-4.268302547869027,20.39522802216554,5.3107997019092625,1551918806602327.0,-0.58276504,0.020028682,-0.14327842
-5.3491892690102425,20.408373709260843,5.0472366087425335,1551918838557848.0,-0.5864302,-0.026397035,-0.14205669
-6.569288405787281,20.287975909527706,4.7439879061580665,1551918872975400.0,-0.62552553,-0.054496817,-0.1298394
-7.84433748246272,20.139840633716815,4.57653910206219,1551918907395191.0,-0.6230821,-0.11558329,-0.06875292
-8.871236791978113,19.81567410490656,4.396013440348233,1551918939354983.0,-0.44470963,-0.2194303,-0.115178645
-9.48067400635161,19.425076536154982,4.1377397026795855,1551918973773941.0,-0.19914201,-0.18888706,-0.14694361
-9.720774023738679,19.362884782578412,3.8052266657629925,1551919005733264.0,-0.06719524,0.13975817,-0.21169527
-9.76382422100899,19.48223678058222,3.34701560381799,1551919040147431.0,0.023212746,-0.15223518,-0.20803009
-9.690761996966284,18.8730829769173,3.136302467697818,1551919072110400.0,-0.0024435753,-0.35504228,-0.025992386
-10.11627437783304,18.538572843996597,3.0719285802942706,1551919106528889.0,-0.4899136,0.06523267,-0.082191944
-11.379948469686951,18.8416932808113,2.769078020065582,1551919138483421.0,-0.763581,0.11898876,-0.22635601
-12.434672773365778,18.814220403977192,2.346654419815057,1551919172900452.0,-0.19181164,-0.1290223,-0.1506088
-12.279360637537962,18.610960176275384,2.2891930206919957,1551919207323473.0,0.20525043,0.037132896,0.08762844
-12.19404842648675,18.750630756895884,2.4281295950864346,1551919239277952.0,-0.17959434,-0.009292826,0.0057725757
-12.862635589147674,18.418045630572752,2.3011057538202824,1551919273700504.0,-0.36651894,-0.23164758,-0.08463541
-13.34712291097178,18.0516166398713,2.1101675986732196,1551919305659775.0,-0.13316862,-0.13390923,-0.14938708
-13.42657307744699,17.911181356832337,1.714693973589989,1551919340070139.0,0.018325828,-0.0997008,-0.21291701
-13.372848336173757,17.380077489787876,1.503368342722033,1551919372037327.0,0.03298658,-0.5028715,0.01676814
-13.296723632855926,16.204780560766558,1.736931692608135,1551919406453837.0,0.0378735,-0.5847274,0.14016281
-13.22024892838542,15.017671149242906,1.903295104507762,1551919440870504.0,0.035430036,-0.63604003,0.048533108
-13.17072418633389,13.616030515560377,1.9981317224758985,1551919472831598.0,0.035430036,-0.81807774,0.04242446
-13.0124370596016,12.050746405482975,2.0884577031296123,1551919507243994.0,0.13439012,-0.7178959,0.07174596
-12.689912547045141,10.81868064408417,2.309031702883586,1551919539203004.0,0.19547659,-0.70201343,0.13283244
-12.233250674885909,9.353496474204514,2.451857636134523,1551919573626494.0,0.25778478,-0.6507008,0.00088565797
-11.7724762749662,8.526555379364781,2.3548069124328492,1551919605585504.0,0.21380255,-0.22920412,-0.09440924
-11.552764193857827,8.316732653534373,2.0742206925603415,1551919639998473.0,0.0048868014,-0.054496817,-0.17626512
-11.664239336858886,7.837847645923377,1.7626595010953818,1551919674420348.0,-0.06597351,-0.40391144,-0.10173963
-11.608239619319445,7.145287808793044,1.6136731810627163,1551919708836181.0,0.10506862,-0.21576512,-0.08097021
-11.372427560345638,6.976415049734424,1.2006120821748016,1551919743256389.0,0.0965165,0.037132896,-0.37052009
-11.343727803154975,6.998048229667013,0.33172452155141086,1551919775211129.0,-0.06963869,-0.09847907,-0.49391478
-11.59362782173406,6.41941330729004,-0.4931987104719059,1551919809629150.0,-0.13805553,-0.4552241,-0.3253161
-11.712977954545375,5.296703844871446,-1.0597346664355962,1551919844052431.0,0.042760417,-0.58961433,-0.24346025
-11.485478368051142,4.286712889448138,-1.4110601859897667,1551919876011025.0,0.16982028,-0.44667196,-0.14572188
-11.171966366304336,3.621715535840631,-1.6209464598583891,1551919910423212.0,0.1295032,-0.23775625,-0.039431415
-11.018054233640513,3.308992894610428,-1.4668330340906452,1551919944837691.0,0.010995447,-0.07526621,0.19636236
-11.289654238042742,3.2821325144148665,-1.1007073020719877,1551919979259358.0,-0.3188715,-0.014179744,0.08396326
-12.030078812531107,3.284515712020847,-1.16372055676266,1551920011223733.0,-0.40439257,0.031024247,-0.08585714
-12.630416042628367,3.292655303137404,-1.1106695468634111,1551920045640660.0,-0.1612684,-0.030062221,0.14627145
-12.733753669780329,3.172363601222079,-0.8655955691963081,1551920077600139.0,0.013438909,-0.13146576,0.038759273
-12.70706642542699,2.9091659197673643,-0.9413444451599303,1551920112013004.0,-0.026878163,-0.11313983,-0.04920525
-12.915578979266995,2.7691681349821735,-0.9370308911606507,1551920146431129.0,-0.16004667,-0.11680501,0.015546411
-13.074129062200518,2.471339086734669,-1.07328158281569,1551920178390816.0,0.035430036,-0.16323075,-0.17015646
-12.685017126458893,2.242966376087352,-1.4947426841577252,1551920212812796.0,0.31276262,-0.06915756,-0.21536045
-12.01800540722611,2.2422870765089806,-1.7925182467950544,1551920244772171.0,0.38484466,0.0065896586,-0.10784827
-11.077993894713323,2.0246768546892215,-2.174341877200903,1551920279186129.0,0.61086464,-0.16445246,-0.33020303
-9.671257742526278,2.103622487908602,-2.8064546354322557,1551920311150816.0,0.83932805,0.2875874,-0.24346025
-8.320871572663552,2.8712614181958678,-2.9473909655796624,1551920345568004.0,0.3836229,0.30469164,0.0607504
-8.229696881373549,3.035675871555945,-2.6434776742084805,1551920379980452.0,-0.22724178,-0.059383728,0.22812733
-8.8523465698253,2.9761091199781533,-2.252016324311722,1551920411944566.0,-0.35430166,0.061567485,0.14871491
-9.157896548083347,3.4134358470142274,-1.9554530293583174,1551920446363473.0,0.07330365,0.33890006,0.20857966
-8.959446935436207,3.9617310677621282,-1.545966697233104,1551920478317014.0,0.036651768,0.16785794,0.17070605
-9.137159517773084,4.266495399129517,-1.4587032153895105,1551920512740348.0,-0.17715089,0.22650096,-0.050426982
-9.448134468848824,4.843490595794719,-1.510253975996537,1551920544699723.0,-0.11606442,0.37555194,0.025320247
-9.475959679876777,5.52669210627618,-1.3838780320318294,1551920579112327.0,0.07452538,0.24727035,0.079076335
-9.306560052177781,5.749662613828162,-1.20661649354476,1551920611077119.0,0.07941229,0.0053679273,0.10961957
-9.258435327241774,5.6723147774195075,-1.0150531029306626,1551920645494046.0,-0.045204107,-0.020288385,0.06197213
-9.432647901475296,5.833422831747193,-0.9079664994795177,1551920677453941.0,-0.10751232,0.1617493,0.08762844
