Rot_X (deg),Rot_Y (deg),Rot_Z (deg),Gyro_Time (ns),Gyro_X,Gyro_Y,Gyro_Z
0.0,0.0,0.0,1022564996205626.0,0.014660637,-0.020288385,-0.014996827
0.03972473466440546,-0.07839783695176647,0.016651043115098393,1022565030620730.0,0.0024433425,-0.02395358,0.01676814
-0.0024504614359227156,-0.0804082359114416,0.004864612230212929,1022565065034636.0,-0.026878163,-0.0044059083,-0.025992386
-0.006563173617190471,-0.1193250047445355,-0.010198677849557893,1022565096991355.0,0.030543119,-0.01784493,0.009437764
0.13772396681046462,-0.13244789520994688,0.017477356167980566,1022565131404948.0,0.102625154,-0.011736281,0.01676814
0.3029236033091581,-0.1611271719526039,0.05403902113869254,1022565163358178.0,0.053755984,-0.011736281,0.015546411
0.335998342464557,-0.21415002703525088,0.06246507094101246,1022565197776355.0,0.012217178,-0.039836057,0.00088565797
0.43916053266119787,-0.27432927777976374,0.07225175986760446,1022565229731719.0,0.10140342,-0.0129580125,0.006994307
0.6764600944927239,-0.3045146536635978,0.10552778976777179,1022565264142501.0,0.120951094,-0.04227952,0.038759273
0.8902221675077084,-0.44897493341419425,0.22464124881135827,1022565298560990.0,0.09773823,-0.07404449,0.06197213
1.0611967925872,-0.5551791459793556,0.31580286778278943,1022565330516719.0,0.09773823,-0.052053355,0.03631581
1.2985838536684093,-0.6334019821399239,0.38425386556070795,1022565364928334.0,0.14538568,-0.03617087,0.031428892
1.5707084102283213,-0.6988312298704091,0.3998155485792356,1022565396887292.0,0.12828147,-0.031283952,-0.008888178
1.760758008532469,-0.7222791100501731,0.3844416206259058,1022565431302448.0,0.05742117,0.018806953,-0.021105472
1.9029451666096233,-0.7080834236651035,0.2941283932248949,1022565463259167.0,0.1172859,-0.020288385,-0.058979087
2.393556791620524,-0.7609105837150738,0.2285162021230454,1022565529629376.0,0.120951094,-0.021510117,-0.018662013
2.669356321250802,-0.8615333988224954,0.193804789330431,1022565564040678.0,0.17226374,-0.071601026,-0.012553364
3.065205757946226,-0.9877936936913259,0.2073933353585801,1022565598454063.0,0.18936795,-0.027618766,0.027763706
3.343192806347325,-0.96484801459998,0.2593549873771727,1022565630414219.0,0.1172859,0.02613733,0.014324682
3.702204772447138,-0.9961708897924588,0.2804685275346489,1022565664827969.0,0.25534135,-0.04838817,0.025320247
4.178816656164482,-1.0428751502389366,0.386155133178957,1022565696785209.0,0.21991119,0.029802516,0.08518499
4.555153609062888,-0.9276356505742316,0.5344060625977695,1022565731198490.0,0.17470719,0.046906732,0.05586348
4.937003069122339,-0.9290149503953109,0.6475301615460872,1022565763150313.0,0.23090675,-0.041057788,0.058306944
5.3803649557782744,-1.0082877834965172,0.7143186633742102,1022565797561876.0,0.19303313,-0.027618766,0.0106594935
5.675676971067683,-1.0242981719693909,0.7244947122083805,1022565831983438.0,0.11117726,-0.0007407181,0.0057725757
5.899326558848309,-1.0050274909966928,0.7188814120480781,1022565863940886.0,0.14294223,0.013920035,-0.010109909
6.134438620530143,-0.9968878976455999,0.7268699627823125,1022565898349740.0,0.08063402,-0.027618766,0.0106594935
6.33980071887946,-1.1051921051663334,0.7322816545772604,1022565930310573.0,0.16004644,-0.06915756,0.0045508444
6.696275186684934,-1.1736149489799246,0.7753576755280879,1022565964721719.0,0.15271607,-0.0019624457,0.03631581
6.895074797906443,-1.196956731727191,0.8354568215087917,1022565996681094.0,0.06963846,-0.0373926,0.006994307
7.0523119276264765,-1.2598670790868858,0.8059954057379598,1022566031096198.0,0.095294766,-0.01784493,-0.02354893
7.235361524506231,-1.3006399448190598,0.7763589884597326,1022566065509844.0,0.07330365,-0.031283952,-0.017440282
7.396711161933217,-1.3481317072073233,0.7005707480180778,1022566097466094.0,0.10995553,-0.005627636,-0.06997465
7.679248188649825,-1.2938796548299258,0.5658469192010703,1022566131881146.0,0.16493335,0.059124023,-0.057757355
7.9855852082345615,-1.2537839921662564,0.5108836632836639,1022566163834115.0,0.15149434,-0.038614333,0.0021073893
8.178172308055935,-1.3427693182071934,0.536109699886609,1022566198247657.0,0.015882365,-0.0044059083,-0.00033607334
8.139672123829538,-1.2681986828163172,0.5016214278034369,1022566230208230.0,-0.0085522225,0.046906732,-0.025992386
8.328059227301157,-1.2891090670938383,0.4793350052026276,1022566264622240.0,0.2125808,-0.033727415,-0.0076664463
8.764508643151819,-1.3095633504098414,0.4575342196522667,1022566296579011.0,0.19058968,0.010254845,-0.010109909
8.980020724222022,-1.3317862341784368,0.4421602900660071,1022566330992605.0,0.07452538,-0.059383728,0.009437764
9.318907704615063,-1.4975089941788746,0.48856130962003186,1022566365408178.0,0.2712238,-0.0997008,0.04364619
9.773907098192284,-1.616925693570605,0.5928479150940524,1022566397364115.0,0.15882471,-0.020288385,0.059528667
9.951881710228987,-1.6104486002301466,0.6527239225969849,1022566431777761.0,0.036651768,0.020028682,-0.0015578009
9.948993996438455,-1.4781280127329113,0.6475481224007309,1022566463735365.0,-0.001221844,0.10066283,0.0057725757
10.120756115767772,-1.4036634766137273,0.6799491524057466,1022566498144532.0,0.15638125,-0.019066662,0.022876788
10.322355724679925,-1.470230221895309,0.7298108079647531,1022566530105261.0,0.014660637,-0.01784493,0.02409852
10.228905568992321,-1.4451156455625542,0.7308868647261659,1022566564514428.0,-0.041538917,0.021250412,-0.0223272
10.249730319971812,-1.493063507723448,0.7248754282891663,1022566598933751.0,0.061086357,-0.058162004,0.035094082
10.419654950259257,-1.5916552236867112,0.7963495641047765,1022566630890938.0,0.107512064,-0.052053355,0.01798987
10.600867055876927,-1.6706655558875994,0.7782631370458535,1022566665305001.0,0.08185575,-0.008071095,-0.027214117
10.729404228014303,-1.7395947985290852,0.7544498550017875,1022566697260938.0,0.053755984,-0.059383728,0.0106594935
10.831253910987803,-1.897005061627622,0.7395134249040213,1022566731676355.0,0.058642894,-0.08626177,-0.034544498
10.972566070981784,-2.087034197173834,0.6779876727058057,1022566763627136.0,0.10629033,-0.13268751,-0.0027795285
11.170315663705118,-2.401156835852774,0.7050512074807066,1022566798042605.0,0.05009079,-0.13879615,0.015546411
11.169265447149758,-2.6286359431881556,0.6833379229490366,1022566830003490.0,-0.030543353,-0.1119181,-0.036987953
11.176352709342286,-2.8525461544296444,0.6017265497870729,1022566864417240.0,0.053755984,-0.107031174,-0.043096602
11.335952349170535,-3.058675283697896,0.5160508185723839,1022566896374740.0,0.09285132,-0.10458773,-0.045540057
11.471664494231037,-3.2558105159796256,0.46410191994973327,1022566930788594.0,0.030543119,-0.09481389,-0.008888178
11.495114240906764,-3.4259082715525464,0.4013030315023195,1022566965199376.0,0.018325828,-0.0911487,-0.07486157
11.576838957295958,-3.6161999121530206,0.2352148620100788,1022566997159844.0,0.059864625,-0.0997008,-0.083413675
11.68770113267284,-3.8065101579822573,0.11055352425596493,1022567031573646.0,0.04398215,-0.1119181,-0.043096602
11.723400885851964,-4.045189258658531,0.003965311007703615,1022567063531459.0,-0.0024435753,-0.13879615,-0.0760833
11.759888121148535,-4.3203744261283346,-0.13959601457810858,1022567097942917.0,0.05009079,-0.13879615,-0.050426982
11.875300305709027,-4.588191014010469,-0.24644672972936413,1022567129902396.0,0.04886906,-0.14734825,-0.08707887
11.86488758269173,-4.883851169199157,-0.4820579864765442,1022567164312136.0,-0.05253448,-0.13268751,-0.13961324
11.775812443246062,-5.140467752138003,-0.7350335909336879,1022567196272188.0,-0.02809989,-0.1534569,-0.12739594
11.766974717599906,-5.422652919743044,-0.979044848129636,1022567230687292.0,0.0024433425,-0.14368308,-0.11884384
11.733637013527154,-5.718400570600429,-1.1947936239378258,1022567265101407.0,-0.030543353,-0.14001787,-0.09196578
11.685774338602325,-5.989279643680639,-1.3278068202930282,1022567297057501.0,-0.024434704,-0.14490479,-0.04676179
11.612099168084747,-6.287389788603422,-1.3822057150239284,1022567331472865.0,-0.046425834,-0.15223518,-0.024770662
11.540961513050245,-6.555818864787565,-1.454843956479021,1022567363423855.0,-0.01343914,-0.14246133,-0.055313893
11.581648746300852,-6.836079027413653,-1.5558803124694458,1022567397843907.0,0.036651768,-0.13268751,-0.04676179
11.670198455516696,-7.081845621172315,-1.6570435311276142,1022567429800678.0,0.058642894,-0.15590036,-0.06997465
11.7701231398854,-7.415130750230526,-1.8229173438590474,1022567464209636.0,0.017104097,-0.15590036,-0.09196578
11.735735453618512,-7.676909834737317,-2.0132429993881846,1022567496171771.0,-0.03543027,-0.13879615,-0.10662654
11.73564772180526,-7.987707479726175,-2.1745668131060065,1022567530585157.0,0.041538686,-0.162009,-0.057757355
11.878797365183159,-8.353367582552478,-2.263615679786839,1022567564996251.0,0.058642894,-0.23286933,-0.038209684
11.87512215285994,-8.74954655878856,-2.3374789237722893,1022567596956198.0,-0.05864313,-0.16445246,-0.036987953
11.76977200980533,-9.04214421660382,-2.418477796170412,1022567631370938.0,-0.012217411,-0.14856997,-0.056535624
11.807396760149691,-9.360710750319264,-2.579140972290095,1022567663328230.0,0.029321387,-0.17911321,-0.10662654
11.876608971820911,-9.722170848337521,-2.786052255125326,1022567697742344.0,0.045203872,-0.18400013,-0.09074406
11.944946197369452,-10.054999866464751,-2.911015458057255,1022567729698803.0,0.019547556,-0.15956554,-0.038209684
11.930683476490826,-10.350835012274635,-2.979064344314268,1022567764109844.0,-0.0085522225,-0.14734825,-0.04798352
11.971545710468172,-10.697332627586453,-3.0810632020063515,1022567798523126.0,0.05619944,-0.1949957,-0.04798352
12.041195438040262,-11.069974117297823,-3.1676139326649886,1022567830484948.0,0.0048868014,-0.19377398,-0.04798352
12.003832737561646,-11.39232175133715,-3.2585877977357587,1022567864898803.0,-0.03298681,-0.13146576,-0.045540057
11.966820052903428,-11.678425815615801,-3.3639510119630285,1022567896855730.0,0.0073302602,-0.19010878,-0.063866004
12.03524476317717,-12.062198397771649,-3.455974876624366,1022567931270782.0,0.039095223,-0.17911321,-0.027214117
12.008994568136522,-12.316189984312388,-3.528350617752097,1022567963223594.0,-0.07574735,-0.089926966,-0.07119638
11.878094444047361,-12.55340018707323,-3.727474405557684,1022567997639532.0,-0.0024435753,-0.18522185,-0.078526765
12.051869058774603,-13.05634768121908,-3.7923732935443324,1022568032055469.0,0.13439012,-0.25486046,-0.019883744
12.211293704902005,-13.437651673282213,-3.8797990250793104,1022568064012292.0,0.029321387,-0.17422631,-0.078526765
12.193880986946867,-13.792024273347938,-4.053722834170426,1022568098423490.0,-0.023212973,-0.19988263,-0.09563097
12.158618300376597,-14.227315731467883,-4.243698491268435,1022568130383594.0,-0.017104328,-0.24508661,-0.10296135
12.099993118260914,-14.627538304344505,-4.433809786813877,1022568164794896.0,-0.029321622,-0.18277842,-0.08707887
12.105505396296138,-15.036404781362863,-4.593247964557147,1022568196755886.0,0.047647335,-0.25486046,-0.09318751
12.223892564011853,-15.541539773223333,-4.8110092370022794,1022568231169428.0,0.036651768,-0.22553894,-0.116400376
12.249004826053481,-15.882068787631862,-5.046922353842275,1022568263122188.0,0.006108529,-0.15223518,-0.13961324
12.271842073061146,-16.16189145615812,-5.31788358591904,1022568297535990.0,0.0024433425,-0.11680501,-0.116400376
12.284704345730814,-16.430495534422622,-5.486509257931186,1022568329497292.0,0.0378735,-0.2194303,-0.06264427
12.399416517386236,-16.939043021371454,-5.598220606106443,1022568363912709.0,0.036651768,-0.19377398,-0.06142254
12.404666280440702,-17.250015664143476,-5.7465069297065705,1022568398322136.0,0.019547556,-0.15590036,-0.0797485
12.507040976817235,-17.590807189908805,-5.865782637434567,1022568430284063.0,0.07574711,-0.20843473,-0.043096602
12.58719067472676,-18.010192261759073,-5.931294022890549,1022568464698334.0,-0.009773952,-0.1864436,-0.044318333
12.496278035281398,-18.239946367347915,-6.053807225990004,1022568496654896.0,-0.050091024,-0.12535712,-0.07486157
12.5052902955939,-18.619256449095268,-6.148456089412902,1022568531070417.0,0.058642894,-0.22065201,-0.02354893
12.624727477438988,-19.027160409300205,-6.17918186669173,1022568563021823.0,0.035430036,-0.21332166,-0.018662013
12.581589780689812,-19.373308019735127,-6.281268224707793,1022568597441407.0,-0.056199674,-0.1290223,-0.0883006
12.538627084044284,-19.624168210154618,-6.450029531156667,1022568631855417.0,0.013438909,-0.17544803,-0.06508773
12.595151819283936,-20.00853469959118,-6.516105278536838,1022568663812344.0,0.0378735,-0.20843473,-0.02354893
12.612389072664994,-20.35371980767986,-6.6415541209256395,1022568698222865.0,-0.03176508,-0.11558329,-0.116400376
12.500476450862083,-20.527298960096985,-6.860317255912184,1022568730179115.0,-0.072082154,-0.10092253,-0.098074436
12.479476235554216,-20.852009089634105,-7.012278574498311,1022568764593334.0,0.06963846,-0.23775625,-0.06997465
12.64397587089347,-21.284850545128403,-7.165154255946446,1022568796555782.0,0.0378735,-0.15834382,-0.10173963
12.507563246910474,-21.369198373675246,-7.438565479619416,1022568830969480.0,-0.105068855,0.013920035,-0.16893475
12.517363019850427,-21.586352496309654,-7.754716026497313,1022568862926823.0,0.14660741,-0.24753007,-0.15671745
12.863949999962513,-22.029362529941707,-7.992864783114468,1022568897340782.0,0.07696884,-0.103365995,-0.1005179
12.74748735804682,-22.123947850554632,-8.226638545591536,1022568931756407.0,-0.097738475,-0.07404449,-0.1298394
12.718174666177053,-22.403664418756392,-8.439976680688131,1022568963707553.0,0.06475154,-0.1949957,-0.08707887
12.912511761233716,-22.817624476965705,-8.570238013895157,1022568998123073.0,0.09773823,-0.20721301,-0.05409217
12.966236497880315,-23.115891022607542,-8.676038728166692,1022569030079740.0,-0.03176508,-0.122913666,-0.07119638
12.935261291346519,-23.44567614773067,-8.83001254582484,1022569064494167.0,0.03176485,-0.21576512,-0.051648706
13.11796091428909,-23.90695507065026,-8.866513317342422,1022569096455521.0,0.14905088,-0.26219082,-0.019883744
13.34143549311387,-24.376390092187762,-8.990474657374843,1022569130870626.0,0.036651768,-0.19377398,-0.096852705
13.289022821725094,-24.74658159216504,-9.18115031692145,1022569162823126.0,-0.07452562,-0.20476955,-0.096852705
13.188572670528883,-25.17305414836009,-9.34606162866742,1022569197242396.0,0.008551992,-0.24753007,-0.07119638
13.25489738275308,-25.64353916948816,-9.51394793961143,1022569231656198.0,0.010995447,-0.18400013,-0.10173963
13.220247196645849,-25.958780698054365,-9.71346108425282,1022569263613230.0,-0.023212973,-0.18033496,-0.09563097
13.232234453864558,-26.356640765406432,-9.852122414256009,1022569298026719.0,0.04398215,-0.21209991,-0.057757355
13.364709121745017,-26.741269751875855,-9.956698130294368,1022569329984167.0,0.09773823,-0.19255224,-0.045540057
13.522558747573608,-27.08374237591914,-10.029734508877002,1022569364395573.0,0.039095223,-0.13513097,-0.036987953
13.534721020621467,-27.332921476798266,-10.115847739348135,1022569396356980.0,0.0036650738,-0.16445246,-0.052870438
13.572258257950834,-27.69613157341794,-10.199821611445637,1022569430770573.0,0.014660637,-0.14246133,-0.030879311
13.53988306925195,-27.88091071659765,-10.27368485227982,1022569462727969.0,-0.041538917,-0.07648794,-0.04676179
13.523870349736091,-28.102633427832686,-10.364746220610975,1022569497137553.0,0.047647335,-0.14612651,-0.030879311
13.656257504687499,-28.390856076324475,-10.399807633123869,1022569531557761.0,0.036651768,-0.122913666,-0.017440282
13.637182305514742,-28.54256024923194,-10.474370871178406,1022569563509428.0,-0.039095458,-0.047166437,-0.06997465
13.612682093834833,-28.68247053089999,-10.646457177763141,1022569597924636.0,0.019547556,-0.103365995,-0.09563097
13.727569276737931,-28.881162165288604,-10.769670380804499,1022569629886251.0,0.084299214,-0.09725734,-0.021105472
13.863631425242948,-29.045747429456814,-10.788981806990412,1022569664300001.0,0.034208313,-0.058162004,-0.024770662
13.814718750541338,-29.150376642278015,-10.848145060503755,1022569696256980.0,-0.07941253,-0.041057788,-0.021105472
13.7025436085724,-29.236736968891336,-10.823969022987173,1022569730667969.0,0.006108529,-0.07282276,0.027763706
13.79958080796127,-29.375928652192588,-10.78723235801308,1022569762624896.0,0.06841673,-0.06182719,0.014324682
13.861968022852432,-29.464126480524463,-10.76051882311889,1022569797043855.0,0.0036650738,-0.031283952,0.022876788
13.91201774941559,-29.57271178973385,-10.721905296975907,1022569831458021.0,0.067195006,-0.09725734,0.0045508444
14.188692292742138,-29.858640846059327,-10.70109361782798,1022569863414740.0,0.19425486,-0.1534569,0.022876788
14.403241877281625,-29.97536364791589,-10.655917599801638,1022569897830261.0,0.0012216112,0.0017027408,0.01798987
14.354854202790694,-30.009642918163408,-10.610693442792405,1022569929786459.0,-0.017104328,-0.030062221,0.025320247
14.38276644619367,-30.098190745714234,-10.579517411148045,1022569964198386.0,0.035430036,-0.053275086,-0.00400126
14.415928701586951,-30.149620004117722,-10.60621819246008,1022569996158646.0,-0.007330493,-0.011736281,-0.016218554
14.445153445177818,-30.249717821005504,-10.592367145951302,1022570030573073.0,0.061086357,-0.0789314,0.035094082
14.60580306533093,-30.403015591866943,-10.538266134055062,1022570064988490.0,0.058642894,-0.04350125,0.008216035
14.598365355348607,-30.40080739555064,-10.533729441464853,1022570096944323.0,-0.04031719,0.013920035,0.0045508444
14.611927612110735,-30.504492710311858,-10.507978405522126,1022570131360157.0,0.06352982,-0.11558329,0.014324682
14.70450231624772,-30.66092187851208,-10.474041737952199,1022570163311407.0,0.024434473,-0.047166437,0.025320247
14.718152073233563,-30.727069725110685,-10.417665727301163,1022570197730886.0,0.024434473,-0.06304892,0.015546411
14.795239291932424,-30.924536361337754,-10.434304016977347,1022570229688646.0,0.030543119,-0.11313983,-0.02965758
14.762339087381116,-31.079671630480014,-10.510490394689782,1022570264102657.0,-0.05253448,-0.059383728,-0.045540057
14.638263972970726,-31.1689008568263,-10.604391118686543,1022570296059428.0,-0.057421397,-0.054496817,-0.050426982
14.63117624779746,-31.327011125023358,-10.664565010737997,1022570330475261.0,0.041538686,-0.11069637,0.00088565797
14.657950992345862,-31.544358844553372,-10.614401496091002,1022570364890573.0,-0.024434704,-0.08259659,0.0192116
14.623563306091105,-31.638575566448168,-10.613539800301636,1022570396846980.0,0.015882365,-0.06671411,-0.013775095
14.6996880092657,-31.874298259905526,-10.626288730813357,1022570431261146.0,0.015882365,-0.11680501,0.00088565797
14.665912822444849,-32.00403994918349,-10.635664525018118,1022570463217865.0,-0.0061087636,-0.0789314,-0.018662013
14.80179997037353,-32.24361265560677,-10.646313459038026,1022570497633594.0,0.10995553,-0.12657884,0.0057725757
14.856749705797608,-32.396191826955494,-10.674501739208534,1022570529589740.0,-0.06353005,-0.04350125,-0.04676179
14.749387060548358,-32.54555210236034,-10.787438085258866,1022570564000886.0,0.008551992,-0.12657884,-0.045540057
14.882299227685262,-32.79761868850578,-10.820088859249582,1022570595962657.0,0.10018169,-0.13024405,0.00088565797
14.952736430726294,-32.993441424164104,-10.827762794855683,1022570630376823.0,-0.04031719,-0.06304892,-0.0064447187
14.864536272633437,-33.13492670550448,-10.825986739964346,1022570664792657.0,-0.0061087636,-0.09481389,0.0057725757
14.96691096666084,-33.33318083812995,-10.79248757181559,1022570696748282.0,0.09407305,-0.10458773,0.025320247
15.087398130592637,-33.48612861156296,-10.765424037163875,1022570731164167.0,-0.009773952,-0.04227952,-0.017440282
14.931473039702748,-33.54097036642992,-10.834212281051276,1022570763118178.0,-0.11484269,-0.053275086,-0.04798352
14.84038537941267,-33.71474312214546,-10.879598685412793,1022570797531928.0,0.042760417,-0.088705234,0.01676814
14.959822562618537,-33.846059812957876,-10.813724545408192,1022570829490053.0,0.04398215,-0.041057788,0.041202728
14.907759873704013,-33.858482703352465,-10.838548467270208,1022570863907344.0,-0.08918636,0.021250412,-0.058979087
14.769597270015074,-33.857849505877695,-10.925449197935604,1022570895864323.0,-0.029321622,-0.016623199,-0.010109909
14.85140946595853,-33.88462238520497,-10.883335676151098,1022570930280469.0,0.09162959,-0.01784493,0.035094082
15.023346579060323,-33.91235776464395,-10.821184670688348,1022570964690730.0,0.04886906,0.016363494,0.020433329
15.013633871469109,-33.811712152190424,-10.827147968871545,1022570996652136.0,-0.023212973,0.04812846,-0.0223272
14.999458650776191,-33.71029763954317,-10.857046885202301,1022571031065990.0,0.0036650738,0.060345754,0.009437764
15.013895922122678,-33.584364547406636,-10.82993521210628,1022571063022188.0,0.017104097,0.05179365,0.015546411
15.07908313550663,-33.48951252990861,-10.806021674616254,1022571097438698.0,0.054977708,0.038354624,0.01676814
15.131582876140271,-33.38029192495273,-10.791422490915883,1022571129392032.0,-0.0158826,0.09455418,-0.005222991
15.036470226085667,-33.15646501919634,-10.805133921128924,1022571163806094.0,-0.041538917,0.12509742,0.0057725757
15.033495012544115,-32.98704446528818,-10.769359754583466,1022571195767501.0,0.03176485,0.054237105,0.025320247
15.102269723454867,-32.88230495766168,-10.726546232556254,1022571230181928.0,0.021991014,0.059124023,0.01676814
15.09264449872675,-32.724715494492656,-10.710682687966676,1022571264598021.0,-0.019547787,0.10310628,0.0033291169
15.070769300618263,-32.553544943200606,-10.672371024416034,1022571296553959.0,-1.1641532e-07,0.08844553,0.038759273
15.113294032234526,-32.39245548103824,-10.590532536656898,1022571330970417.0,0.034208313,0.07622824,0.044867918
15.13665629592321,-32.221634926028734,-10.502170913943718,1022571362922709.0,-0.0085522225,0.09088899,0.033872355
15.098681095549546,-32.026770494368414,-10.427507418946373,1022571397341094.0,-0.01343914,0.11776704,0.039981
15.190293296867614,-31.833724958481696,-10.322870810529182,1022571429299115.0,0.12705974,0.07622824,0.07296769
15.488492813179676,-31.694860477339777,-10.177244875073407,1022571463713126.0,0.09773823,0.10310628,0.058306944
15.506167580026533,-31.403115028497858,-10.119683227960003,1022571495670521.0,-0.051312752,0.1910708,0.01798987
15.43581740792594,-31.032025750208437,-10.088769696923755,1022571530086094.0,0.021991014,0.1446451,0.01676814
15.567067060241259,-30.80679884342232,-10.041931178328145,1022571564496459.0,0.06841673,0.11165839,0.032650623
15.601104314863631,-30.603515817400385,-9.989882025842334,1022571596458542.0,-0.02809989,0.120210506,0.013102952
15.539854135203923,-30.34250144705769,-9.91828102936433,1022571630868021.0,-0.0158826,0.12754086,0.059528667
15.576166389051584,-30.227855848371156,-9.7558069727925,1022571662829584.0,0.04398215,-0.019066662,0.10351093
15.622278619814374,-30.13536632680063,-9.587081062028956,1022571697245678.0,-0.0036653066,0.13487124,0.052198295
15.618515905992615,-29.80722091134645,-9.524444417324196,1022571729197448.0,0.024434473,0.208175,0.028985437
15.707853097927504,-29.37785667798263,-9.44304342939446,1022571763613334.0,0.045203872,0.21061847,0.05586348
15.750640329499806,-28.947967446255905,-9.297417497662911,1022571798027813.0,0.009773719,0.22039232,0.0778546
15.765252600663464,-28.525672103324016,-9.178343402681962,1022571829989271.0,0.013438909,0.2326096,0.050976563
15.838839809053079,-28.038295431255975,-9.075067433308828,1022571864405782.0,0.05619944,0.2411617,0.06319386
15.948477001595029,-27.600687607186522,-8.933155861198877,1022571896361667.0,0.045203872,0.22772267,0.0815198
15.987851734796601,-27.12101092352161,-8.83871738358117,1022571930777709.0,-0.0061087636,0.25093555,0.014324682
15.9606390411984,-26.626790660918225,-8.799618220387734,1022571962730573.0,0.0024433425,0.26070938,0.041202728
16.060476223416824,-26.14413897698098,-8.704479742326777,1022571997152292.0,0.07696884,0.22283578,0.044867918
16.152000930040217,-25.720093648339233,-8.650680591167932,1022572029107032.0,-0.001221844,0.24727035,0.01798987
16.07570076290967,-25.220116986197763,-8.599729577112342,1022572063521563.0,-0.045204107,0.26803976,0.04242446
16.07141303409492,-24.643927882422126,-8.491203612221442,1022572097935730.0,0.04398215,0.26070938,0.052198295
16.19933770575494,-24.179982581514157,-8.382629508992231,1022572129894844.0,0.06352982,0.22894442,0.07174596
16.24999992897096,-23.652268435918096,-8.217403591922155,1022572164305053.0,0.008551992,0.2827005,0.08396326
16.30661216484972,-23.13153569009866,-8.06184203358595,1022572196267240.0,0.058642894,0.26437455,0.0900719
16.426136832193503,-22.587896567184853,-7.896266118227982,1022572230681719.0,0.05131252,0.28392226,0.075411156
16.534899007171717,-22.007682477870265,-7.739002696190926,1022572265098178.0,0.062308088,0.2863657,0.093737096
16.669211175768066,-21.467174759099123,-7.557803657448731,1022572297054844.0,0.06841673,0.29980472,0.08885017
16.755748387917247,-20.898754554793033,-7.4273545745666105,1022572329011198.0,0.018325828,0.29980472,0.06685905
16.71278569264682,-20.282402991028896,-7.261516161531212,1022572363427501.0,-0.039095458,0.31813067,0.097402275
16.70604796632007,-19.594913982935484,-7.04921529697995,1022572397841928.0,0.05742117,0.34256524,0.116949946
16.913860066578838,-18.979856323314312,-6.829778790479889,1022572429799636.0,0.14660741,0.30224818,0.110841304
17.124384654965326,-18.368142262039033,-6.685115358802745,1022572464212448.0,0.024434473,0.35111734,0.026541974
17.064796989625872,-17.63075969308855,-6.685916161565838,1022572496171667.0,-0.054977942,0.41342556,-0.0076664463
17.040121777739856,-16.779820832525168,-6.653252631726206,1022572530587865.0,0.054977708,0.4109821,0.052198295
17.18528393293808,-16.11427571407678,-6.487453580175134,1022572562544948.0,0.07574711,0.32301757,0.1230586
17.248808645595204,-15.384611744631005,-6.24601523421921,1022572596959532.0,-0.009773952,0.41586903,0.12428033
17.223783433618664,-14.55581036970585,-5.99503940129286,1022572631375730.0,-0.009773952,0.38776922,0.10961957
17.21030822842455,-13.879502756170337,-5.815677863982754,1022572663332188.0,-1.1641532e-07,0.35478255,0.07663289
17.230082978945777,-13.127001312818454,-5.674076933260023,1022572697748334.0,0.0024433425,0.40487346,0.07174596
17.1893952970907,-12.373168771768333,-5.534177859004555,1022572729705417.0,-0.04031719,0.3865475,0.079076335
17.100057641919435,-11.583829867847596,-5.360726955383315,1022572764115678.0,-0.041538917,0.40120825,0.10106747
17.033644982822278,-10.853797306774048,-5.131752958331842,1022572796078178.0,-0.037873726,0.3608912,0.14016281
16.945794824707527,-10.130695832620729,-4.827314662868192,1022572830492761.0,-0.03298681,0.3694433,0.14871491
16.92339462786263,-9.462613208716032,-4.580578182769709,1022572862449896.0,-0.001221844,0.32179585,0.1230586
16.895831918666055,-8.843286655422515,-4.298102373728722,1022572896866094.0,-0.021991245,0.32546103,0.15726702
16.870981722592486,-8.221316491334802,-4.039378409047548,1022572928822553.0,-0.007330493,0.3279045,0.12550205
16.863106495334208,-7.635589915628887,-3.758215098062377,1022572963245105.0,-0.004887034,0.28025705,0.15360184
16.859168767011045,-7.077338322047522,-3.4864142755482646,1022572997653803.0,0.0012216112,0.27659184,0.10717611
16.882268530954686,-6.535955600752784,-3.2634777820153733,1022573029611251.0,0.028099664,0.29980472,0.14504972
16.960405735349887,-5.970966499771849,-2.9476645031625925,1022573064027032.0,0.03176485,0.26070938,0.15848875
16.98210550125751,-5.478321238702912,-2.637403080063635,1022573095983438.0,-0.004887034,0.2704832,0.17437123
16.951042794270823,-4.940982104021954,-2.2981398210978,1022573130399896.0,-0.0158826,0.26803976,0.13405417
16.942730084188426,-4.420511856667758,-2.110115790030298,1022573162353698.0,0.0024433425,0.2827005,0.08518499
16.940104851977985,-3.886672721338222,-1.9068274100042508,1022573196771719.0,-0.004887034,0.24360517,0.1230586
16.928729628390627,-3.4149585295550686,-1.6536640750660954,1022573231188073.0,-0.017104328,0.24360517,0.10473266
16.898279437150627,-2.9214382494899995,-1.4851525236416678,1022573263140053.0,-0.004887034,0.26803976,0.0815198
16.92619168121251,-2.4185740863258727,-1.295251633381979,1022573297556198.0,0.020769283,0.25582245,0.10839784
16.95821644032953,-1.9387913023364591,-1.1125651019520713,1022573329516823.0,0.008551992,0.24727035,0.0900719
16.936428725763424,-1.409152168233982,-0.9236267130359431,1022573363932084.0,-0.0024435753,0.26681802,0.10839784
17.016053440343036,-0.9336568832889174,-0.7209902005579243,1022573395890938.0,0.08796439,0.23505306,0.10717611
17.18247805774293,-0.4985176485959852,-0.4805143588103503,1022573430306146.0,0.06352982,0.1910708,0.12672378
17.216165313805256,-0.08873480579841095,-0.29135282818640096,1022573462263073.0,-0.0158826,0.26315284,0.07663289
17.206365088658366,0.4196418523514078,-0.16523937710060246,1022573496679376.0,0.03298658,0.22283578,0.05586348
17.29167730107036,0.7813872482579742,-0.06926526258404574,1022573528635886.0,0.029321387,0.18129697,0.053420026
17.24197710980223,1.176539012151198,0.05133569308634248,1022573563049219.0,-0.06353005,0.21184021,0.06808078
17.14590195568252,1.6346907256953873,0.18934913437528883,1022573597467084.0,-0.007330493,0.21550539,0.07663289
17.175301715121247,1.9908361216369992,0.36941067370427094,1022573629424428.0,0.029321387,0.17885351,0.12428033
17.250726419857948,2.349675415446094,0.6861864550465274,1022573663840678.0,0.034208313,0.19840118,0.18292333
17.286163673275507,2.7752082449402127,1.0263728449907492,1022573695797501.0,0.025656201,0.23871824,0.17437123
17.382063359929898,3.227584960020081,1.3301111328491837,1022573730214167.0,0.062308088,0.20084465,0.1316107
17.438150594967727,3.5878428572228738,1.5582976221863223,1022573762167448.0,-0.012217411,0.20206636,0.115728214
17.371562918893307,4.029194580898964,1.8002609626376695,1022573796586094.0,-0.03543027,0.21306193,0.14138454
17.375062700821573,4.373964988438066,2.095122401768394,1022573828539532.0,0.047647335,0.15197545,0.16215394
17.450487405987996,4.6990293047277945,2.3932606982562428,1022573862958751.0,0.010995447,0.17641005,0.1316107
17.42624969318653,5.094093561493165,2.661036527353226,1022573897375261.0,-0.007330493,0.19595772,0.12916724
17.48303692995675,5.412613982132861,2.8732105366851934,1022573929332553.0,0.059864625,0.1373147,0.10473266
17.604486597194487,5.673540862822922,3.102311391963989,1022573963743959.0,0.040316954,0.14342335,0.112063035
17.61892386952713,5.978323798846119,3.2738854366795205,1022573995705938.0,-0.01466087,0.1666362,0.07052423
17.622161132750417,6.281163126666951,3.4348238504080677,1022574030118855.0,0.035430036,0.12754086,0.09618056
17.730310823580563,6.473596159641231,3.61541039297008,1022574062077813.0,0.05742117,0.10921493,0.08274153
17.789110544067537,6.743448033413373,3.7426613406042994,1022574096494740.0,-0.001221844,0.15686238,0.06319386
17.775897839101614,7.036593478987824,3.873197920086176,1022574128446407.0,0.0048868014,0.14708853,0.074189425
17.799435085585653,7.28684535811087,4.032298839616229,1022574162862292.0,0.010995447,0.11654531,0.08640672
17.8411723187133,7.5694722110020045,4.185887264948408,1022574197282240.0,0.03176485,0.15686238,0.06319386
17.913272041147458,7.849755160159605,4.295336368910727,1022574229235626.0,0.034208313,0.15075374,0.053420026
17.946609280486975,8.13203201247102,4.377699856966483,1022574263656563.0,0.006108529,0.13487124,0.035094082
18.00243401700226,8.380464990520599,4.466936477691216,1022574295613230.0,0.05009079,0.13364953,0.058306944
18.10778369717859,8.629404379609243,4.564874953371193,1022574330029584.0,0.040316954,0.12631914,0.035094082
18.118983470109782,8.897524849265775,4.642911584049541,1022574361982344.0,-0.0085522225,0.13364953,0.05586348
18.15022071113257,9.125201754093869,4.756775049294234,1022574396401980.0,0.03176485,0.11288012,0.054641757
18.21138294578143,9.411872205057941,4.850386668527859,1022574428355730.0,0.028099664,0.16419277,0.041202728
18.24804518393791,9.679624077930075,4.9191876683178934,1022574462775469.0,-1.1641532e-07,0.10677148,0.03631581
18.182945005520526,9.965313431059428,5.021501140573029,1022574497191407.0,-0.039095458,0.16052756,0.06685905
18.17270729873564,10.236933893263506,5.162887712887696,1022574529144844.0,0.03298658,0.123875685,0.07052423
18.237107010134828,10.477035785440101,5.275351174023015,1022574563563855.0,0.015882365,0.12998432,0.044867918
18.268694266557652,10.727043774334687,5.343762812250335,1022574595522084.0,0.026877932,0.13609299,0.033872355
18.347181467593487,10.961808167947988,5.40197632154029,1022574629936928.0,0.025656201,0.10921493,0.01798987
18.33353126248304,11.218641143581548,5.406513013791022,1022574661894480.0,-0.023212973,0.17152312,-0.005222991
18.36669350328022,11.525942980548491,5.437864045702322,1022574696311563.0,0.06841673,0.11165839,0.04364619
18.534868132746034,11.679876049877965,5.571813127506148,1022574728263021.0,0.10018169,0.07622824,0.09495883
18.65211779488925,11.889877971624928,5.726451553574813,1022574762680313.0,-0.019547787,0.1580841,0.044867918
18.56330513793764,12.216779780036179,5.7774900681692465,1022574797099115.0,-0.020769518,0.14708853,0.021655058
18.61107988244772,12.460575267485774,5.846951706774953,1022574829056823.0,0.059864625,0.120210506,0.057085212
18.693854578732058,12.727539635651603,5.98312764283597,1022574863473855.0,0.013438909,0.11776704,0.074189425
18.73392932869404,12.965210132221808,6.121539218817385,1022574895430001.0,0.035430036,0.13975817,0.06563732
18.76044157341642,13.257636970548617,6.2298901852805395,1022574929846615.0,-0.019547787,0.13609299,0.05586348
18.76122885691804,13.512719947437523,6.333826797121954,1022574961800521.0,0.042760417,0.12998432,0.06441559
18.87174103293274,13.663046916231634,6.484702722795635,1022574996219532.0,0.029321387,0.055458836,0.08396326
18.818103363153224,13.825904976781075,6.615589303645047,1022575028173230.0,-0.06719524,0.11532358,0.04364619
18.73077820261355,14.02890690283322,6.622790355888133,1022575062592448.0,-0.010995681,0.07011959,0.0045508444
18.753002949638027,14.099171441091473,6.684153861614988,1022575097009063.0,0.045203872,0.016363494,0.039981
18.90464010001958,14.180392070286805,6.724303023881178,1022575128966563.0,0.11484244,0.067676134,0.00088565797
19.24580207307974,14.306394061457649,6.679966619188294,1022575163377032.0,0.25045443,0.07622824,-0.05409217
19.844038852075407,14.404589679235308,6.602253381359378,1022575195340313.0,0.37140563,-0.026397035,-0.016218554
20.534938034061916,14.367666808249007,6.629666916610865,1022575229750730.0,0.25900653,0.08233688,0.021655058
20.867350032019928,14.690649729297213,6.6482035972260185,1022575261713021.0,0.11362072,0.23505306,0.0033291169
21.111124584594368,15.116426462627544,6.640442162193334,1022575296124636.0,0.16004644,0.1580841,-0.0076664463
21.482386543052684,15.335353370008136,6.610980745068889,1022575330544219.0,0.21013735,0.06401094,-0.008888178
21.843061027841554,15.417098998139307,6.63747991854269,1022575362508386.0,0.14905088,0.03224598,0.039981
22.076860588459553,15.406076106468277,6.710655914549783,1022575396917553.0,0.10995553,-0.039836057,0.008216035
22.304447675850724,15.344584356844326,6.705917615138339,1022575428875157.0,0.13561185,-0.019066662,0.0045508444
22.627234672548486,15.303898990863166,6.71521866559713,1022575463287292.0,0.20525043,-0.045944706,-0.0027795285
23.10997154599931,15.128044837184545,6.706105369563258,1022575495248594.0,0.3115409,-0.1119181,-0.0064447187
23.815833212840843,14.902822127743997,6.6984314332803505,1022575529667448.0,0.3567449,-0.083818324,-0.011331636
24.36122002533614,14.821555394539978,6.636380683900971,1022575561618959.0,0.2700021,-0.0068493634,-0.06753119
24.93443181265755,14.702557596237634,6.462369380072216,1022575596038282.0,0.28832802,-0.11802674,-0.08097021
25.418656175501578,14.378284970827105,6.35214552845214,1022575630454584.0,0.20280698,-0.17544803,-0.017440282
25.71239321002626,14.176705837636057,6.354494723579831,1022575662411459.0,0.12583801,-0.041057788,-0.00033607334
25.908742803367126,14.049395543105039,6.297033328758249,1022575696828073.0,0.042760417,-0.085040055,-0.04798352
25.91320508332792,13.827691418978974,6.234545079098262,1022575728785834.0,-0.009773952,-0.13635269,-0.0076664463
25.98679228797679,13.54734375495461,6.230633639869276,1022575763196563.0,0.120951094,-0.162009,0.00088565797
26.390604236893974,13.150377280457997,6.248557820683872,1022575795159636.0,0.28832802,-0.2365345,0.030207165
26.986303498257968,12.597379825165739,6.3604087834904215,1022575829574740.0,0.25656307,-0.31594694,0.074189425
27.389240439351692,12.044225973165132,6.493920361812239,1022575861532136.0,0.23090675,-0.27196467,0.0607504
27.94827723220043,11.612853433920916,6.583633845569576,1022575895949323.0,0.26878035,-0.1705611,0.027763706
28.309914197992857,11.230830846785494,6.609384882893132,1022575930364063.0,0.11117726,-0.24753007,0.008216035
28.4954138118222,10.614939550044946,6.686546514557252,1022575962316823.0,0.09407305,-0.3978028,0.06319386
28.614938473651268,9.910917238153967,6.79673497786883,1022575996737501.0,0.015882365,-0.2695212,0.035094082
28.52262583256024,9.522438253902003,6.786221683670023,1022576028695001.0,-0.11484269,-0.1864436,-0.04187487
27.865763208722946,7.916576962660028,6.48132325761836,1022576129485834.0,0.025656201,-0.24142143,-0.027214117
27.919575430796623,7.3928919873434245,6.418086869126684,1022576163900313.0,-0.017104328,-0.2731864,-0.04798352
27.79900031165533,6.921025572849458,6.29242366918926,1022576195858698.0,-0.09529502,-0.24019969,-0.08585714
27.632575210249335,6.458153047320605,6.09548737773752,1022576230275157.0,-0.07086042,-0.23164758,-0.10173963
27.501500104226448,5.9783241366476965,5.938936697722395,1022576262232084.0,-0.06597351,-0.27562985,-0.06753119
27.404112454844086,5.42086417450116,5.7885503786653585,1022576296649115.0,-0.03543027,-0.2731864,-0.0883006
27.311537318052345,4.891947803022734,5.626924702562891,1022576328606563.0,-0.06475178,-0.29151234,-0.078526765
27.210037169557403,4.287500400021534,5.463675900338657,1022576363021876.0,-0.020769518,-0.31716865,-0.08097021
27.202774459015437,3.665571606351416,5.326112705471182,1022576394981094.0,-0.009773952,-0.3440467,-0.060200818
27.105211806764906,3.0368867213956428,5.2372388357140816,1022576429395469.0,-0.062308315,-0.2902906,-0.045540057
27.010536654247872,2.3788018579307333,5.11213999669817,1022576463812657.0,-0.054977942,-0.35870746,-0.0797485
26.82853658899541,1.7215230873553988,4.937301824673427,1022576495769948.0,-0.1282817,-0.3489336,-0.098074436
26.6338490198094,1.0147007736914508,4.760490520790575,1022576530185157.0,-0.046425834,-0.37703338,-0.06997465
26.551773874482915,0.30168457713254343,4.626164826093078,1022576562140834.0,-0.0781908,-0.3733682,-0.08952233
26.27903637569518,-0.40426273687259834,4.438416032634443,1022576596559428.0,-0.16004667,-0.3403815,-0.08707887
26.076473829060486,-1.085166479614579,4.2810778522101955,1022576628512813.0,-0.06597351,-0.40146798,-0.08585714
25.892636247479036,-1.8600637538421203,4.062179082357204,1022576662933490.0,-0.1282817,-0.34649014,-0.14694361
25.655598717295394,-2.566273577771665,3.7568303805916,1022576697348855.0,-0.08063426,-0.37581167,-0.13472632
25.621823530102123,-3.3085147622185116,3.568079725880708,1022576729307657.0,0.034208313,-0.4063549,-0.08097021
25.68351074778726,-4.086649523008284,3.4216309037842856,1022576763728230.0,-0.010995681,-0.36970302,-0.078526765
25.560398130781344,-4.757840778131879,3.2297302508030286,1022576795680730.0,-0.109955765,-0.35137707,-0.1298394
25.370873050343356,-5.455388096128675,3.0091689831739385,1022576830097344.0,-0.039095458,-0.3574857,-0.07486157
25.41532279695211,-6.118179350230544,2.9472057323996648,1022576862054167.0,0.065973274,-0.35382053,-0.010109909
25.541409955506033,-6.853876644756938,2.890181838763965,1022576896471563.0,0.025656201,-0.37703338,-0.063866004
25.48208478858885,-7.5251553905358515,2.730568657651187,1022576928424376.0,-0.07941253,-0.30861655,-0.10418308
25.308047195451103,-8.130040288353076,2.5009948906716017,1022576962841146.0,-0.085521184,-0.31594694,-0.10418308
25.16647207733648,-8.827850116990472,2.321558584517823,1022576997261251.0,-0.073303886,-0.34282497,-0.0883006
25.0216594758109,-9.422741431230232,2.1723578997745605,1022577029214376.0,-0.07941253,-0.30495137,-0.07363984
24.786721936786986,-9.990788867762406,2.015496583672073,1022577063635261.0,-0.18814644,-0.24019969,-0.08707887
24.276334657291088,-10.347767875756492,1.861308400730374,1022577095588907.0,-0.29932383,-0.16689593,-0.06630946
23.79377233686495,-10.667578003623305,1.7670095388182518,1022577130008542.0,-0.21746796,-0.162009,-0.032101035
23.31226002677233,-10.977482041432763,1.7339212636065626,1022577161963021.0,-0.2773327,-0.162009,-0.011331636
22.763022737358526,-11.222304735782119,1.6929973558433802,1022577196377865.0,-0.2638937,-0.07282276,-0.043096602
22.303210410209946,-11.384596401195012,1.6033841272383582,1022577228335834.0,-0.2113593,-0.13024405,-0.034544498
21.977185452111183,-11.74456900122569,1.6258976666594163,1022577262758073.0,-0.13561209,-0.19010878,0.057085212
21.67207299946564,-12.01894807652211,1.744359261091383,1022577294714844.0,-0.2028072,-0.11436156,0.048533108
21.20272317388748,-12.157983362398811,1.7661728002310588,1022577329127032.0,-0.2492329,-0.031283952,-0.018662013
20.74159834080492,-12.236818698248925,1.7422238792453837,1022577363542344.0,-0.2028072,-0.06793584,-0.011331636
20.344785964739703,-12.342147910367466,1.7233980907544986,1022577395505001.0,-0.25778502,-0.03617087,0.0033291169
19.716098756440076,-12.37977078133864,1.7587741185681323,1022577429921928.0,-0.32986706,-0.015401471,0.030207165
19.18033648683879,-12.41273755612297,1.8087232727322446,1022577461879115.0,-0.24801119,-0.028840497,0.01798987
18.560924269909123,-12.431897941171687,1.8746367755103284,1022577496296198.0,-0.4227185,0.034689434,0.06808078
17.623537365329057,-12.337639825081547,2.0715857979410353,1022577528249688.0,-0.5021309,0.033467706,0.1145065
16.86946276966401,-12.302550257494216,2.192799253945546,1022577562665157.0,-0.2773327,0.0017027408,0.01798987
16.254250571150138,-12.33087953498928,2.2136984330450313,1022577594629271.0,-0.44959655,0.009033117,0.01798987
15.079913875705435,-12.163227577462846,2.241286967598027,1022577629043698.0,-0.66339916,0.11288012,0.01676814
13.971027130388746,-12.078263051528523,2.300725475049535,1022577663460886.0,-0.37873623,-0.038614333,0.03753754
13.585589743299,-12.158742286729847,2.3346621426438126,1022577695419323.0,-0.13072516,-0.02395358,-0.005222991
12.980527520057567,-11.890377917305118,2.344050692267773,1022577729834271.0,-0.49113536,0.31080028,0.027763706
12.080590577956109,-11.276545252909093,2.456562291240067,1022577761788594.0,-0.3848449,0.30224818,0.097402275
11.557078285673184,-10.835806042601915,2.700013131899203,1022577796208542.0,-0.17592916,0.13120607,0.143828
11.291865795983298,-10.695522963724258,2.991024566085403,1022577828162240.0,-0.12583825,0.061567485,0.18658853
11.028840781089727,-10.584045960945168,3.3688752920996725,1022577862583751.0,-0.20402893,0.09455418,0.17437123
10.519590988974924,-10.33482547890548,3.615174272941711,1022577894536459.0,-0.32131496,0.1531972,0.09129363
9.902016278490724,-10.059461119601453,3.7531002101824527,1022577928957917.0,-0.23335044,0.11165839,0.052198295
9.553328855011973,-9.882253071523083,3.8621118139572697,1022577960911980.0,-0.15882494,0.06889786,0.07296769
9.317866315763059,-9.852063501423462,4.066187690668214,1022577995331980.0,-0.09407329,-0.016623199,0.10717611
9.060966300629719,-9.788186455546525,4.170688659921775,1022578029749532.0,-0.1820378,0.09455418,0.009437764
8.644991443495796,-9.525928490909212,4.197800333662377,1022578061705730.0,-0.23823735,0.18862733,0.022876788
8.222104069719974,-9.206901661665526,4.254788843143523,1022578096121876.0,-0.1905899,0.10677148,0.038759273
7.750041753793879,-9.021818622387475,4.313837989605279,1022578128077084.0,-0.36529723,0.1617493,0.02409852
6.940667197597195,-8.49007948695527,4.321739040370766,1022578162493021.0,-0.34819302,0.33279142,0.0045508444
6.546829821374597,-8.105846621303295,4.357950706151181,1022578194455626.0,-0.124616526,0.04324154,0.039981
6.20697987897993,-8.099982027108071,4.511626628441212,1022578228870886.0,-0.26633713,0.045685,0.10351093
5.576980188380821,-7.908423994652034,4.69151316568984,1022578260828855.0,-0.36651894,0.14953199,0.075411156
4.966842972847888,-7.644347121492803,4.812726618184984,1022578295246511.0,-0.22113314,0.07500651,0.047311377
4.605293052236089,-7.552732600440517,4.882052618665546,1022578329661928.0,-0.17959434,0.021250412,0.0106594935
4.304380593655633,-7.54921190413466,4.882564315542498,1022578361616146.0,-0.12950343,0.0017027408,0.0045508444
4.1050555254185195,-7.563909792628009,4.91120284949985,1022578396035990.0,-0.08307772,-0.009292826,0.030207165
3.887267995320312,-7.56747659186826,4.997726973645735,1022578427989532.0,-0.16737705,0.053015374,0.049754836
3.458955622227496,-7.361324674063145,5.017003016066703,1022578462411146.0,-0.24678944,0.14708853,-0.02354893
3.0606557442356173,-7.146579165115919,4.992227233953191,1022578494368698.0,-0.109955765,0.06889786,0.00088565797
3.130830447939831,-7.106239601165709,5.038453252814136,1022578528785678.0,0.102625154,-0.026397035,0.057085212
3.1177927408143713,-7.089156416808985,5.146239858284157,1022578560739948.0,-0.1576032,0.09455418,0.041202728
2.614055429361313,-6.77012959028685,5.192640876692266,1022578595159584.0,-0.27611098,0.13242778,0.014324682
2.3129679648330397,-6.685496465673707,5.238127535604494,1022578627113490.0,-0.025656436,-0.04227952,0.020433329
2.278842759226737,-6.710256848335386,5.2485660844838415,1022578661533907.0,-0.108734034,0.06523267,-0.005222991
1.7835929427452288,-6.329192587543314,5.214992170287972,1022578695951094.0,-0.35307992,0.2827005,-0.034544498
1.21099320541312,-5.923259731069134,5.1692164054910394,1022578727904948.0,-0.17226397,0.08355861,0.009437764
1.145018026578855,-6.042520033394416,5.336367314648522,1022578762319896.0,-0.0061087636,-0.0874835,0.14627145
0.8954680212132111,-5.98308688259982,5.605241278952835,1022578794278803.0,-0.27977616,0.14831027,0.12183687
0.2076308717881235,-5.626260090870769,5.782542181287685,1022578828698751.0,-0.36163202,0.17396659,0.06319386
-0.33740637987256816,-5.3971645890231335,5.8796537952174495,1022578860657396.0,-0.16737705,0.061567485,0.04242446
-0.3667190884870263,-5.424637468607437,5.966479781175023,1022578895074167.0,0.06841673,-0.04472298,0.052198295
-0.33198183565595013,-5.386116802622393,6.056328902735216,1022578927031198.0,-0.037873726,0.07744997,0.035094082
-0.4507194706255113,-5.2177648485918,6.105879918625874,1022578961443907.0,-0.048869293,0.07134132,0.01798987
-0.4520321999557405,-5.091587856916241,6.136180950738909,1022578995864376.0,0.0378735,0.08478034,0.0057725757
-0.32725752434587607,-4.889004828329526,6.127155155753809,1022579027822136.0,0.10629033,0.120210506,-0.0015578009
-0.057757990540131865,-4.688890400721723,6.219843631969772,1022579062239323.0,0.15515952,0.08111516,0.09495883
0.2611790269962066,-4.5206948465507475,6.380917689302371,1022579094192188.0,0.20769389,0.11776704,0.058306944
0.712765911877318,-4.249967984149237,6.472731168086902,1022579128613803.0,0.17470719,0.14831027,0.06197213
0.8236280989138927,-4.009934991937998,6.670030193102682,1022579160568594.0,-0.048869293,0.11288012,0.14749318
0.7047154651584857,-3.742620627346397,6.922581025558123,1022579194987865.0,-0.01343914,0.12509742,0.09618056
0.7407652192682648,-3.5233251137276036,7.059767602232067,1022579226946303.0,0.023212746,0.13975817,0.058306944
0.713552510291114,-3.155210827116147,7.139243594565032,1022579261361928.0,-0.056199674,0.21550539,0.014324682
0.5766148872885193,-2.721384104086777,7.160444634457774,1022579295779063.0,-0.057421397,0.21184021,0.03631581
0.5311147096662985,-2.3199137465887083,7.263593743598233,1022579327737240.0,0.015882365,0.22650096,0.07052423
0.5995394212148724,-1.8599245409229976,7.421644658023,1022579362148073.0,0.05009079,0.20695329,0.10717611
0.7048891170043046,-1.5123541459348717,7.694631112845536,1022579394111876.0,0.05009079,0.17274487,0.17437123
0.7736638289893587,-1.1746023388896327,8.043169366046127,1022579428522657.0,0.010995447,0.15686238,0.15360184
0.7925635968151985,-0.7686694945908068,8.269693366201535,1022579460485313.0,0.045203872,0.26315284,0.1022892
0.9975756839850771,-0.23264286011425386,8.528194193901788,1022579494902865.0,0.11972936,0.28147876,0.14871491
1.1296128531104292,0.31407736124779556,8.80004315060027,1022579526859688.0,0.020769283,0.27170494,0.143828
1.1913875673953132,0.8685664605934726,9.078668961142508,1022579561272292.0,0.08185575,0.30835682,0.12672378
1.4844245850042188,1.5056554983663941,9.364207264692135,1022579595692553.0,0.16615508,0.31324375,0.17681469
1.7368616521773939,2.0033757717803535,9.69984366428873,1022579627650626.0,0.103846885,0.24727035,0.1731495
1.9279612464195028,2.530127404860177,10.02676943665976,1022579662067813.0,0.09162959,0.26070938,0.16826259
2.061310914674967,3.0613601408557196,10.33283086282884,1022579694025105.0,0.067195006,0.31813067,0.13771935
2.2839979866448483,3.625299247259465,10.575669211533361,1022579728437813.0,0.12705974,0.22527924,0.13405417
2.416210152908793,4.0368320958204285,10.878230640499613,1022579760396511.0,-0.001221844,0.24604863,0.16459739
2.367209963888711,4.567346227433122,11.142506465518272,1022579794816355.0,-0.001221844,0.22161403,0.115728214
2.3781472381668265,4.990866564873957,11.39038044402729,1022579826774844.0,0.024434473,0.23627478,0.12794551
2.526021877195588,5.476318244854596,11.622806296075819,1022579861190521.0,0.11484244,0.19351426,0.115728214
2.7103839765715767,5.792807579384923,11.886732119798559,1022579895608126.0,0.08185575,0.07134132,0.12550205
2.9286085670405604,5.956540638304012,12.14423108782219,1022579927565105.0,0.12828147,0.06523267,0.13038898
3.1604831231093167,6.045967657917446,12.406669413987073,1022579961977396.0,0.10629033,0.03957635,0.1316107
3.2636453165288453,6.166125754024734,12.608693431430831,1022579993940365.0,-0.026878163,0.13120607,0.0778546
3.3084450437640673,6.4297651302193515,12.715994398088565,1022580028351667.0,0.13439012,0.06278921,0.038759273
3.609794575320368,6.453760807666541,12.815206010196789,1022580060314063.0,0.11972936,0.013920035,0.074189425
3.7193442456155412,6.487712877129817,12.986644411737988,1022580094731823.0,0.0024433425,0.010254845,0.08762844
3.7420064934032538,6.520877447115028,13.11625785630239,1022580129142344.0,0.052534252,0.00781139,0.044867918
3.899068636083075,6.481348180447341,13.19219448865904,1022580161101980.0,0.07819056,-0.019066662,0.031428892
3.910443391778778,6.462450296230187,13.188458049759305,1022580195521355.0,-0.06841697,0.016363494,-0.028435849
