Rot_X (deg),Rot_Y (deg),Rot_Z (deg),Gyro_Time (ns),Gyro_X,Gyro_Y,Gyro_Z
0.0,0.0,0.0,1005728205414813.0,0.107512064,0.016363494,-0.11884384
0.12906215580390212,0.04480206021909611,-0.18074880012726974,1005728239896688.0,-0.0061087636,0.034689434,-0.040653147
0.05897449838326235,0.09881021291709835,-0.2365870565844052,1005728272258720.0,-0.036652,0.05057192,-0.034544498
0.02677430932965985,0.31521822408084343,-0.3305752821226849,1005728304359449.0,-0.004887034,0.16907966,-0.057757355
0.07446153622676033,0.6166575709254747,-0.4294241403984875,1005728338778928.0,0.0378735,0.09577591,-0.03576622
0.1006237816872223,0.6415971472262,-0.4466355685377194,1005728373197782.0,-0.007330493,-0.038614333,0.006994307
0.11208605601290655,0.5893803892586916,-0.45636136354207374,1005728405157053.0,0.03298658,-0.008071095,-0.017440282
0.19346075742681557,0.6004074777739437,-0.5067352619910557,1005728439580595.0,0.0378735,0.015141765,-0.019883744
0.2647729826747335,0.6124156651982088,-0.5051735673355142,1005728471539709.0,0.041538686,-0.008071095,0.022876788
0.3121102101071873,0.6122427636957243,-0.4502850563909266,1005728505955074.0,-0.0036653066,0.015141765,0.021655058
0.34754746442495943,0.6238134525768763,-0.4182733870676982,1005728537912990.0,0.053755984,-0.011736281,0.015546411
0.4675096293063167,0.6047405676258205,-0.37685986478105343,1005728572333720.0,0.03298658,0.016363494,0.041202728
0.4570969216564199,0.628473745622275,-0.24212328485993478,1005728604292730.0,-0.01466087,-0.026397035,0.10106747
0.4644466813688134,0.5092134439415718,-0.019409924726976613,1005728638713511.0,0.014660637,-0.053275086,0.10473266
0.4990089198009443,0.47964056698095126,0.14686598348254376,1005728673128928.0,0.010995447,0.018806953,0.06808078
0.4867587146888891,0.4836862623802186,0.268215079080403,1005728705096897.0,-0.023212973,-0.032505684,0.07052423
0.4499210141223432,0.39435093442027314,0.4053535169146974,1005728739511532.0,-0.007330493,-0.047166437,0.052198295
0.4477332996390748,0.3315466837324744,0.47367765567747766,1005728771472313.0,-0.001221844,-0.010514554,0.032650623
0.4643580524954113,0.3297987835216609,0.6026786027009287,1005728805890282.0,0.015882365,-0.0019624457,0.10351093
0.4968203100810554,0.2787195252037069,0.8819650500534902,1005728837846376.0,0.017104097,-0.04350125,0.18781026
0.5536950307170462,0.06635930845578747,1.3077657373168323,1005728872264449.0,0.036651768,-0.16323075,0.22934906
0.6030447574077263,-0.2790007936918378,1.8221163585387106,1005728906687105.0,-0.007330493,-0.1778915,0.30998322
0.5239446099901269,-0.6121798138311789,2.5543024452268126,1005728938641272.0,-0.051312752,-0.19743916,0.4749167
0.412994471769084,-1.055277353516781,3.675027578616346,1005728973055751.0,-0.073303886,-0.23042586,0.63129807
0.2582068828707126,-1.4626563303989664,4.889250768927537,1005729005021636.0,-0.08185599,-0.18888706,0.65573263
0.32041909232971777,-1.873553907707394,6.1629257839482685,1005729039444605.0,0.16126817,-0.21209991,0.61175036
0.6440810994292444,-2.2080454280511415,7.3221115050310965,1005729071403772.0,0.11117726,-0.14001787,0.649624
0.6512558607877051,-2.4728181045945252,8.693173906160078,1005729105823355.0,-0.047647562,-0.16811764,0.7168191
0.7054180987390729,-2.9153720448424187,10.128596884166834,1005729137777678.0,0.14416397,-0.2902906,0.80478364
1.0969800306605695,-3.4799194820231723,11.76802157250598,1005729172200699.0,0.1624899,-0.23531279,0.8194444
1.2839671479205856,-3.8298984891658225,13.304506991767553,1005729204157105.0,0.07574711,-0.16445246,0.8402138
1.5188167100628767,-4.173246103557349,15.082356541618609,1005729238579136.0,0.122172825,-0.1705611,0.9232914
1.630116379897684,-4.460681260520862,17.04929347977929,1005729272993511.0,0.017104097,-0.1241354,1.0344688
1.7139410913140702,-4.657972896529676,19.065103510167432,1005729304953980.0,0.08307748,-0.083818324,1.1187681
1.9057406852116041,-4.816608161585614,21.28150271998975,1005729339371324.0,0.07330365,-0.088705234,1.0845597
1.9171154602876048,-4.999812305665956,23.24805026887089,1005729371337053.0,-0.056199674,-0.09603562,1.0308036
1.7752778417023842,-5.099385124978655,25.241762193726263,1005729405750230.0,-0.047647562,0.002924472,0.93673044
1.8112400940987614,-5.048089469360841,26.8298725728039,1005729437713407.0,0.07574711,0.042019814,0.7791273
1.945552240851093,-4.950174954346138,28.35169735713327,1005729472134084.0,-0.020769518,0.037132896,0.7498058
1.6980147333829008,-5.010966705345991,29.791232860035713,1005729504088459.0,-0.20769411,-0.083818324,0.7974533
1.4698146945249637,-5.22498943519663,31.392770070310508,1005729538507990.0,0.009773719,-0.031283952,0.78890115
1.719626747251859,-5.143612407244622,32.856144902498514,1005729572923928.0,0.18203758,0.04812846,0.6691717
1.9361888434959842,-5.178941679689658,34.04175562974983,1005729604896376.0,-1.1641532e-07,-0.039836057,0.60930693
1.8017012191502038,-5.1334396205456585,35.235455706035935,1005729639309865.0,-0.025656436,0.09088899,0.5995331
1.857088459202211,-4.824106686439906,36.3677789669575,1005729671268980.0,0.03176485,0.21184021,0.6239677
1.8389757417370811,-4.497204870723445,37.640753970075835,1005729705689084.0,-0.04031719,0.09577591,0.6410719
1.7338006135827535,-4.380809270785572,38.78716470759924,1005729737648459.0,-0.05986486,0.054237105,0.5836506
1.6918879166710314,-4.2548947776468795,39.88085236657178,1005729772066220.0,0.014660637,0.046906732,0.49446437
1.6877752045040877,-4.215324112360611,40.688813395064635,1005729804022313.0,-0.02809989,-0.016623199,0.37351313
1.6868999745283775,-4.335634409477938,41.294688954098376,1005729838444813.0,0.047647335,-0.070379294,0.24156636
1.8352121142459792,-4.36363228871715,41.74498961605195,1005729872860074.0,0.08063402,0.0579023,0.22934906
1.8930493485562523,-4.23874919574146,42.158763450086305,1005729904819761.0,-0.03298681,0.03957635,0.19269717
1.8181491803905874,-4.3096220384206605,42.398189298044514,1005729939238042.0,0.013438909,-0.08137486,0.046089645
1.9698738279448582,-4.42536374275477,42.395200996757495,1005729971198980.0,0.11362072,-0.02395358,-0.028435849
2.0950859871980683,-4.449861625094818,42.30597712813955,1005730005621845.0,0.019547556,-0.047166437,-0.052870438
2.1026982642116967,-4.541015851048579,42.1806639231955,1005730037580907.0,0.013438909,-0.052053355,-0.0760833
2.235960411086982,-4.621688683124022,42.018640111111424,1005730072000334.0,0.12461629,-0.0044059083,-0.10540481
2.5687224139218987,-4.622630485116752,41.69881456996372,1005730103955230.0,0.18692449,-0.020288385,-0.24468197
2.837259449105632,-4.73340329340154,41.099816153157605,1005730138372626.0,0.08307748,-0.06793584,-0.35708106
3.007446566900508,-4.745388685685604,40.13734303922767,1005730172787105.0,0.12339456,0.08844553,-0.64785266
3.389558529006193,-4.487768209069962,38.642393521382495,1005730204752678.0,0.26145,0.15441892,-0.92396355
3.9516578306875187,-4.267703801703203,36.65792125645466,1005730239176792.0,0.28344113,0.10066283,-1.0656841
4.367544764296512,-4.024433318059595,34.5280722705098,1005730271131636.0,0.108733796,0.17885351,-1.1854136
4.462306947168891,-3.7237814731997205,32.063487933437116,1005730305556897.0,0.095294766,0.092110716,-1.3014779
4.824206426896429,-3.567223408761293,29.49885182257993,1005730337516063.0,0.19058968,0.12509742,-1.4224291
4.882918640584995,-3.1765341488575607,26.6968677373926,1005730371929761.0,-0.09651675,0.21061847,-1.386999
4.767856013851086,-2.8772637171306203,24.055231649398486,1005730403890178.0,0.08307748,0.13242778,-1.4541941
5.170880439440834,-2.6239493393449926,21.11683522268423,1005730438313042.0,0.053755984,0.17641005,-1.3784468
4.621730669557219,-2.0747102186148294,18.53876348071436,1005730472728459.0,-0.46181384,0.33034796,-1.2855954
4.04860593429194,-1.5251899904664294,16.04823976862217,1005730504688251.0,-0.085521184,0.20573157,-1.3613427
4.066455685285571,-1.205113168364433,13.36140558983237,1005730539106532.0,0.026877932,0.104328014,-1.2868172
4.117467926542208,-1.1274800343324594,11.132506689779646,1005730571068563.0,0.010995447,0.017585224,-1.1255488
4.016842776488531,-0.9392655942062551,9.033672023876791,1005730605490699.0,-0.07696908,0.1446451,-0.9728327
3.984117588427461,-0.6916201089741058,7.326710186105636,1005730637450699.0,0.030543119,0.078671694,-0.881203
3.966267371533199,-0.6391180558283778,5.6403501953549835,1005730671870542.0,-0.023212973,-0.008071095,-0.79690367
3.968192152958343,-0.5589474241466402,4.180488125869496,1005730703825438.0,0.015882365,0.099441096,-0.7663604
4.055079346994494,-0.3633829941916732,2.7304654226413363,1005730738242834.0,0.07330365,0.07011959,-0.6857263
4.1970039913514,-0.3348559199344191,1.3973426065071808,1005730772657313.0,0.061086357,-0.014179744,-0.64663094
4.246616233010706,-0.2989602512212452,0.2793427690723015,1005730804623772.0,-0.001221844,0.086002074,-0.5586664
4.265428484280765,-0.1359457892365535,-0.7192678157262062,1005730839048147.0,-0.0024435753,0.03224598,-0.39861986
4.132778379495119,-0.12577509937117923,-1.2102432020441936,1005730871007782.0,-0.14172073,0.00048100948,-0.13228285
3.8908408542301895,-0.05647306021622395,-1.351442027118834,1005730905427938.0,-0.03543027,0.07500651,-0.09563097
3.949903086432057,0.06149753903588151,-1.6177176185116668,1005730937388095.0,0.041538686,0.02613733,-0.18603896
4.01124030274965,-0.0014128086102924708,-1.9156288266151618,1005730971806428.0,0.010995447,-0.08626177,-0.06997465
3.9296026536837116,-0.10770451999541902,-1.931392116294495,1005731003763147.0,-0.06597351,-0.028840497,0.031428892
3.8251275105027682,-0.1045524248141152,-1.9093160769850226,1005731038185855.0,-0.039095458,0.045685,-0.036987953
3.8126147877148613,-0.006375409901769824,-2.0471899058628886,1005731072601115.0,0.015882365,0.03957635,-0.06142254
3.8167270684159362,-0.03382968838260492,-2.0356532182997875,1005731104566324.0,-0.041538917,-0.045944706,0.07663289
3.701401928319876,-0.11091502527320385,-1.8293023388949587,1005731138984657.0,-0.026878163,-0.028840497,0.09129363
3.712776702894539,-0.07099436092555417,-1.7219532332543406,1005731170946063.0,0.039095223,0.06889786,0.039981
3.8270513734313996,0.020620158808926037,-1.6265522554389864,1005731205364970.0,0.029321387,-0.033727415,0.06441559
3.7763011983003834,-0.1408840036881544,-1.4998656692276193,1005731237324865.0,-0.051312752,-0.0997008,0.053420026
3.7776134641937,-0.22033183652058688,-1.4084896884103806,1005731271739970.0,0.042760417,0.031024247,0.04364619
3.840875694440518,-0.14567370218799197,-1.3322030559037297,1005731303699917.0,-0.007330493,0.022472143,0.013102952
3.8717629371418028,-0.26038400792040883,-1.4246644233738512,1005731338124605.0,0.062308088,-0.14123961,-0.110291734
4.049912541232096,-0.5913941350009335,-1.7918755712232672,1005731372538720.0,0.08674268,-0.11924847,-0.24101679
4.177662215395424,-0.6927858525223074,-2.279788452289657,1005731404503824.0,0.05009079,-0.032505684,-0.26178616
4.300336877929926,-0.9019960782334538,-2.8548993855723257,1005731438923459.0,0.052534252,-0.16689593,-0.3460855
4.359224111961877,-1.1203751959927422,-3.7202869411147144,1005731470883355.0,0.039095223,-0.02517531,-0.6112008
4.552336209573185,-0.9780982181868334,-5.180284614670166,1005731505304188.0,0.16004644,0.09577591,-0.7822429
4.889910706234354,-0.961715033757691,-6.580121709710121,1005731537264032.0,0.13561185,-0.052053355,-0.7150478
4.919135447635849,-1.005112900808249,-8.012294428493,1005731571682261.0,-0.045204107,-0.0019624457,-0.7370389
4.988347670007054,-0.8968547949828884,-9.569368885587375,1005731603639240.0,0.1172859,0.07744997,-0.92029834
5.1734972705083635,-0.7793402950593713,-11.456541216387626,1005731638062157.0,0.04886906,0.045685,-0.9447329
5.208497009285559,-0.6750382859731272,-13.363138529586621,1005731672478251.0,-0.01466087,0.0664544,-0.9691675
5.260471749980672,-0.5475301958831302,-15.293662689225785,1005731704438407.0,0.10018169,0.067676134,-1.1255488
5.459096341933095,-0.5119156286724033,-17.626822153462637,1005731738856167.0,0.026877932,-0.003184177,-1.1658659
5.417533660297462,-0.610244847462439,-19.75325865291349,1005731770814501.0,-0.06475178,-0.122913666,-1.1499835
5.346658484018457,-0.9242799866052173,-22.37079284153708,1005731805242105.0,0.054977708,-0.16689593,-1.5006198
5.476508153567076,-1.2576340009467417,-25.282803702348872,1005731837202105.0,0.010995447,-0.18400013,-1.4993981
5.202195649950391,-1.613669098931806,-27.97515035821943,1005731871622105.0,-0.2565633,-0.16445246,-1.2403915
4.817895756114554,-1.896448164506995,-30.33809917305623,1005731903577574.0,-0.10262539,-0.10580944,-1.3454602
4.745358082861593,-1.9936584831939306,-33.10097076704911,1005731937996063.0,-0.0158826,0.018806953,-1.3918859
4.651032929133787,-1.783044062473619,-35.769429945842,1005731972416167.0,-0.07452562,0.17030141,-1.256274
4.5677327805464225,-1.4662736347057606,-38.05529131437246,1005732004376949.0,0.018325828,0.1287626,-1.2037395
4.7158699152472625,-1.357071628303693,-40.396763307596856,1005732038801532.0,0.06352982,-0.009292826,-1.0962274
4.654182249423193,-1.3788384126477302,-42.27802500291775,1005732070756636.0,-0.11362096,-0.0129580125,-0.95328504
4.504119636050544,-1.5385236777597626,-44.216909801378115,1005732105177574.0,-0.004887034,-0.13024405,-1.0107063
4.247569621282068,-1.693658948907375,-46.13409461402966,1005732139600126.0,-0.35430166,0.02613733,-0.84088594
3.7068198600713593,-2.0323504753769726,-47.67996906976174,1005732171560907.0,-0.23212871,-0.22920412,-0.8531032
3.309569975582371,-2.421266963755525,-49.277380988924975,1005732203517626.0,-0.09529502,-0.23531279,-0.8836464
3.263107279255969,-2.9163394602559207,-51.04634090521132,1005732237941063.0,-0.01343914,-0.24875179,-0.8604336
3.179807116072506,-3.353924497793859,-52.65473845930738,1005732272357105.0,-0.072082154,-0.15834382,-0.7700256
3.030619522125708,-3.6092285805282995,-54.03786307447187,1005732304317522.0,-0.07086042,-0.13879615,-0.71382606
3.0030568124277917,-3.9487262042992466,-55.411148322662854,1005732338735178.0,0.06475154,-0.2108782,-0.641744
3.1379814794961485,-4.293017718673036,-56.511298190692585,1005732370702313.0,0.035430036,-0.11924847,-0.53911877
3.0986062808501216,-4.412628021936137,-57.491271287055696,1005732405115907.0,-0.062308315,-0.038614333,-0.4462673
2.976193667725194,-4.579119683777568,-58.24850893060622,1005732437081688.0,-0.043982375,-0.11558329,-0.33508992
3.055468362294657,-4.755517439042487,-58.62088256140246,1005732471501845.0,0.09773823,-0.041057788,-0.012553364
3.2661679387956495,-4.818777788127815,-58.547881565327145,1005732505921063.0,0.05619944,-0.014179744,-0.005222991
3.1866302891565486,-4.857957056765445,-58.65971977702958,1005732537875230.0,-0.12583825,-0.028840497,-0.050426982
2.8760928264510532,-4.903717421741702,-58.53789382672133,1005732572296584.0,-0.11728615,-0.06793584,0.15971048
2.8655051179978286,-5.039584111209629,-58.29763234123324,1005732604257470.0,0.030543119,-0.059383728,0.10473266
2.799267441070739,-5.019107031839557,-57.99940654707133,1005732638681740.0,-0.08796464,0.06401094,0.22201867
2.5932923900371203,-4.841811484511501,-57.53295775076556,1005732670641845.0,-0.073303886,0.11043666,0.25134018
2.719379551441503,-4.6450220505937825,-57.07233209068948,1005732705057886.0,0.13072494,0.120210506,0.23667943
2.829716740860033,-4.4128640471471545,-56.541570840947344,1005732737023042.0,-0.021991245,0.10677148,0.32342225
2.776954053264112,-4.2284996063791365,-55.792195400178514,1005732771441636.0,0.015882365,0.07744997,0.46514285
2.9922911530953034,-4.100291516132376,-54.680609628305874,1005732803398355.0,0.20280698,0.078671694,0.7180408
3.50897798824091,-3.9093645794989436,-52.97958500982338,1005732837822053.0,0.3164278,0.11654531,0.9770475
4.218164650921117,-3.581062758885292,-50.78156080715995,1005732872242365.0,0.41783136,0.17396659,1.2067326
4.922626342659264,-3.2905423115710644,-48.36430110090155,1005732904198667.0,0.31398436,0.13975817,1.376553
5.4425506686642855,-2.7136532087845886,-45.52551492669487,1005732938618876.0,0.2993236,0.47451204,1.4364178
6.4027746740117,-2.0293831012187304,-42.74618054353646,1005732970577782.0,0.7122682,0.18374044,1.589134
7.075298889949045,-1.6434188280133966,-39.307582386115854,1005733004998095.0,-0.11850787,0.27903533,1.7430718
6.637011545096541,-1.091098612415972,-36.26784827495157,1005733036963980.0,-0.185703,0.3205741,1.4999477
6.7950361825309065,-0.5912969509224569,-33.43623711513583,1005733071383563.0,0.31031916,0.16297102,1.3936572
7.2177481079638754,-0.449876376140959,-30.65900277269799,1005733103343563.0,0.006108529,0.021250412,1.6025729
6.7984482354390865,-0.4386742874533034,-27.33992950564498,1005733137759084.0,-0.2235766,0.012698308,1.6270076
6.885597928012105,-0.3291222811304178,-24.275568565502226,1005733172182626.0,0.23579368,0.038354624,1.4376395
7.1869474579927735,-0.2353016620048913,-21.628971601220666,1005733204143563.0,-0.05986486,0.12631914,1.4083179
6.561235253689706,0.29039997936253403,-18.792547946862477,1005733238563876.0,-0.46670076,0.3279045,1.3887703
5.825798156486816,0.9646075958654988,-16.401800766791975,1005733270524292.0,-0.23823735,0.27781358,1.1981806
5.736897998666907,1.3109343895402796,-14.028339186252634,1005733304945282.0,0.05009079,0.09333245,1.2238368
5.611247890700509,1.3479675548448458,-11.574679535727327,1005733336899136.0,-0.24556772,-0.04227952,1.3863269
5.099023080408438,1.5237569959485326,-8.96776819232266,1005733371324397.0,-0.18448126,0.16541448,1.1212115
4.733448155636551,1.7515213949126611,-7.022793727693086,1005733405740074.0,-0.17959434,-0.010514554,0.8793091
4.441285695076556,1.6464546801850752,-5.359695933002925,1005733437704657.0,-0.14172073,-0.038614333,0.9281783
4.028110805338134,1.7886441555871686,-3.4739589603146963,1005733472125074.0,-0.2565633,0.14220163,0.90007854
3.632435923815984,1.9405647240827806,-2.0227859683959033,1005733504081584.0,-0.16371186,-0.02395358,0.6703934
3.3793859063219567,1.7147295108703675,-0.9900857698858201,1005733538500282.0,-0.05864313,-0.14612651,0.34052646
3.372385696469838,1.6828127335996323,-0.5683494274971741,1005733570459970.0,-0.007330493,0.104328014,0.16337568
3.1177606786589043,1.839352198896973,-0.29602361034439745,1005733604880803.0,-0.21746796,-0.034949146,0.09495883
2.8069607282311204,1.615985582366291,-0.18351201015456814,1005733636846532.0,-0.09529502,-0.18766531,0.039981
2.633710632207988,1.3238254286776177,-0.1563609765052713,1005733671266792.0,-0.085521184,-0.13635269,-0.021105472
2.4516230419227405,1.0202027722966078,-0.31724728731404267,1005733705686115.0,-0.091629826,-0.14979172,-0.14450015
2.2914979561083264,0.8133736423702546,-0.6513353236164872,1005733737648147.0,-0.07696908,-0.054496817,-0.17504339
2.103460372440379,0.7453007998167708,-0.8288466230581166,1005733772066220.0,-0.09529502,-0.08259659,0.014324682
2.002485238422759,0.4358342589719295,-0.7011100402642105,1005733804023042.0,-0.048869293,-0.19621742,0.08396326
1.9212850750650086,0.2014240574683972,-0.6181340538295483,1005733838450230.0,-0.024434704,0.0017027408,0.0057725757
1.8832223908040935,0.3437196359767021,-0.5884848826869862,1005733870407938.0,-0.037873726,0.11654531,0.052198295
1.7731472542472098,0.40208418603715723,-0.4436464531550543,1005733904824188.0,-0.05253448,-0.06671411,0.0607504
1.7250220789806967,0.3250174511524334,-0.410759783575711,1005733936783667.0,-0.001221844,0.054237105,-0.02354893
1.5913219543432633,0.6938317348410056,-0.5110086396583504,1005733971208772.0,-0.12583825,0.23993999,-0.06753119
1.41588436805396,0.9820585836863912,-0.6293699828770862,1005734005629032.0,-0.039095458,0.06278921,-0.014996827
1.2818342621884562,1.1408916459485599,-0.5361958680565273,1005734037588928.0,-0.13194689,0.14953199,0.0900719
1.0729717068376772,1.4976309427251104,-0.3888199392991975,1005734072009449.0,-0.037873726,0.13975817,0.06319386
1.0818089854528012,1.5410516043787243,-0.18469592195810863,1005734103971115.0,0.019547556,-0.045944706,0.143828
1.1500586951645286,1.5117412255109288,0.024454952200955782,1005734138384709.0,0.07574711,0.03957635,0.06319386
1.2706333733216923,1.7135367442347191,0.12261656543481031,1005734170352001.0,-0.0024435753,0.15686238,0.0693025
1.2089456923070792,1.8794387005527815,0.2811049828402494,1005734204765282.0,-0.02809989,-0.08137486,0.092515364
0.9748831741414082,1.5951721334090303,0.44821653237551584,1005734236726688.0,-0.16371186,-0.19255224,0.06441559
0.9408454688304378,1.3429994464377417,0.4498175887789463,1005734271151792.0,0.07941229,-0.003184177,-0.052870438
1.0731451200201203,1.519926395047667,0.36899371466533104,1005734305571011.0,0.05742117,0.12509742,-0.025992386
1.1328198568962646,1.6162845093449154,0.3815804006114916,1005734337532522.0,-0.023212973,-0.005627636,0.048533108
1.0098822249968276,1.6453365835120448,0.49631886229210215,1005734371946480.0,-0.061086584,0.037132896,0.039981
0.9152070887374734,1.7012697340270266,0.5066305504274125,1005734403907834.0,-0.017104328,0.02613733,-0.02965758
