Rot_X (deg),Rot_Y (deg),Rot_Z (deg),Gyro_Time (ns),Gyro_X,Gyro_Y,Gyro_Z
0.0,0.0,0.0,1022527810497315.0,0.102625154,0.08478034,0.041202728
0.22819956323134724,0.14008948023452594,0.06810100034946652,1022527844908982.0,0.07574711,0.06523267,0.0192116
0.2601368036467626,0.31552892863666326,0.09980203093540192,1022527879328773.0,-0.0158826,0.10921493,0.02409852
0.27151157787545604,0.4784744867169125,0.18562615556909978,1022527911282575.0,0.052534252,0.0579023,0.048533108
0.41518622133511585,0.5813764969220241,0.25425215514089244,1022527945697159.0,0.0378735,0.08355861,0.026541974
0.3301360733298716,0.8604344591623674,0.26788883987404744,1022527977652471.0,-0.12583825,0.21672711,-0.021105472
0.10158603367735566,1.2063237664722533,0.15425249280751446,1022528012061534.0,-0.091629826,0.11654531,-0.078526765
-0.10981400872346853,1.4341067704789332,6.430893475925514e-05,1022528044021690.0,-0.123394795,0.14220163,-0.07486157
-0.2939140925660121,1.7450836001400476,-0.11042204143704241,1022528078434502.0,-0.04031719,0.14342335,-0.019883744
-0.2822768364162275,1.948173024295961,-0.1285084680820034,1022528112848877.0,0.039095223,0.04812846,-0.0064447187
-0.31045202890143286,2.097206100692737,-0.14960925496529098,1022528144800180.0,-0.09529502,0.14220163,-0.011331636
-0.4892146180481446,2.4332079091365597,-0.19902065350310688,1022528179213305.0,-0.01343914,0.17030141,-0.034544498
-0.38692742414418324,2.6408659317336496,-0.26308390424633293,1022528211165284.0,0.06841673,0.07622824,-0.038209684
-0.4248151243156205,2.903542807300901,-0.2662078435940347,1022528245586482.0,-0.08185599,0.18740562,0.01798987
-0.4718028003264886,3.2688756939304042,-0.26097115156898776,1022528277542055.0,0.061086357,0.16419277,-0.005222991
-0.31141589195081365,3.8341480136790476,-0.2067084438109631,1022528343911117.0,-0.0036653066,0.20206636,0.013102952
-0.2804411516922658,4.177587316357938,-0.17728241076229057,1022528378325752.0,0.035430036,0.14342335,0.032650623
-0.22216643588504412,4.452251684529289,-0.10104391824120594,1022528412731586.0,0.0012216112,0.17030141,0.048533108
-0.2577791216742593,4.8138220826526865,0.0029801887675671296,1022528444689607.0,-0.012217411,0.18496215,0.046089645
-0.2095668939075793,5.081048945846012,0.025581225981563357,1022528479108565.0,0.05742117,0.08111516,-0.024770662
-0.10535469903537015,5.2026070405479565,-0.03751952198570775,1022528511063461.0,0.024434473,0.12631914,-0.034544498
-0.15304239150365087,5.6162212886476315,-0.11265590032243321,1022528545478096.0,-0.062308315,0.28025705,-0.038209684
-0.28578000139031123,6.2287414521230495,-0.15528166734604204,1022528577433357.0,-0.05864313,0.34134352,-0.00400126
-0.31299271123902817,6.755143086055549,-0.1219181379727378,1022528611846117.0,0.040316954,0.19351426,0.03631581
-0.2346805107079137,7.170419828493575,0.020820293738833262,1022528646260961.0,0.014660637,0.25093555,0.09129363
-0.22418073554855059,7.633052625616157,0.13884438812653752,1022528678215440.0,0.0073302602,0.23505306,0.047311377
-0.18296850155727964,8.192966739318969,0.28762031769873236,1022528712630023.0,0.035430036,0.31813067,0.08640672
-0.1274937649055189,8.836286879325222,0.4052944118648153,1022528744582523.0,0.006108529,0.33767834,0.039981
-0.07726948822543905,10.240860584228647,0.642983023355152,1022528845367680.0,-0.0036653066,0.21550539,0.021655058
-0.05670722177399899,10.626318460862107,0.7186571563871177,1022528877323357.0,0.029321387,0.18496215,0.06563732
0.05389222200111011,11.560121859640697,1.0109590185813446,1022528946153148.0,0.05131252,0.21428367,0.06319386
0.07839198335051704,11.941117238014241,1.1507705913669204,1022528978107159.0,-0.01466087,0.23138788,0.07663289
0.10962922525422814,12.49945635018261,1.247571568922844,1022529012517055.0,0.040316954,0.2827005,0.027763706
0.18689144202273392,12.932689179539013,1.31703320788665,1022529044472002.0,0.04886906,0.19595772,0.046089645
0.24840365936070863,13.381215893971543,1.4166341810562475,1022529078890284.0,-0.010995681,0.2827005,0.046089645
0.19135349367636964,13.930648615708284,1.5077957981655654,1022529110845127.0,-0.023212973,0.28880915,0.059528667
0.15757828862113943,14.431500293981102,1.6485217325956143,1022529145260075.0,-0.03298681,0.25093555,0.07174596
0.05520316181006338,14.970958025337035,1.76173332957608,1022529177215440.0,-0.06475178,0.33279142,0.046089645
-0.02223473798481103,16.070048770855713,1.9234853077070908,1022529246042836.0,-0.03420854,0.21672711,0.028985437
-0.33548492838600663,17.08577067646425,1.9225355625469123,1022529312412471.0,-0.036652,0.28392226,-0.005222991
-0.354647629601616,17.542715983682758,1.9076472706055447,1022529344368096.0,0.0012216112,0.20328811,-0.0064447187
-0.38116034059924286,17.92001775596873,1.9240358143171779,1022529378781169.0,-0.041538917,0.20695329,0.03631581
-0.4978854587350968,18.36917557410203,1.9763474658411953,1022529410729294.0,-0.07086042,0.26926148,0.015546411
-0.6384105796942207,18.830564777789437,2.0188109875751676,1022529445138669.0,-0.046425834,0.14953199,0.046089645
-0.6455857893635081,19.06578527373935,2.174197549059259,1022529477106273.0,0.021991014,0.13487124,0.10595438
-0.6355235306779721,19.406949578737738,2.3686484358974886,1022529511521065.0,-0.023212973,0.20328811,0.079076335
-0.6832987224532321,19.853638796035355,2.4229244466941653,1022529545933982.0,0.0036650738,0.20573157,-0.021105472
-0.6513614642904489,20.140309240840132,2.4000736619858194,1022529577890544.0,0.0048868014,0.122653954,0.013102952
-0.6937991597082991,20.365273648015076,2.4818246498506946,1022529612297211.0,-0.023212973,0.10310628,0.049754836
-0.6783118895304153,20.572494168204454,2.5541737846805335,1022529644255284.0,0.03176485,0.13242778,0.020433329
-0.6447996492851059,20.856171011375594,2.566624831587682,1022529678674138.0,-0.0061087636,0.1580841,0.0057725757
-0.6529373760972649,21.111672885729924,2.5948258656654972,1022529713087055.0,0.0073302602,0.0664544,0.027763706
-0.6116376264983655,21.178018526526746,2.666562501736848,1022529745039346.0,0.04886906,0.027359061,0.033872355
-0.512412923020719,21.270526647381597,2.734799140462128,1022529776999711.0,0.05131252,0.06278921,0.044867918
-0.3897382609159349,21.44220359896974,2.816112628927318,1022529811409450.0,0.07086019,0.086002074,0.0192116
-0.2773885905595035,21.558318100513464,2.8315386734726298,1022529845823096.0,0.014660637,0.061567485,0.0021073893
-0.28902629721387296,21.685738692356455,2.858037847401935,1022529877782315.0,-0.0061087636,0.059124023,0.038759273
-0.272576543900357,21.798615695162592,2.9642888149704327,1022529912197211.0,0.018325828,0.055458836,0.046089645
-0.21430180669316182,21.875898826323013,3.0040879779625307,1022529944148357.0,0.035430036,0.034689434,0.01676814
-0.2045895481719512,22.008638312145116,3.0290515143820715,1022529978566065.0,-0.01466087,0.09333245,0.00088565797
-0.20756476287593703,22.16484637944157,3.046888194683612,1022530010514815.0,0.009773719,0.09455418,0.021655058
-0.14369004991125559,22.331360835048105,3.1231266882789916,1022530044932575.0,0.039095223,0.05057192,0.03753754
-0.12960279520163256,22.450712833109204,3.168302707880969,1022530079350805.0,-0.025656436,0.09333245,0.022876788
-0.14272799987222629,22.605083400764066,3.2628768207948435,1022530111306534.0,0.042760417,0.054237105,0.07174596
-0.023115833565236388,22.643322965301092,3.3574027968744193,1022530145719815.0,0.009773719,0.015141765,0.020433329
-0.15891594161314185,22.81125602351351,3.370864481720217,1022530177676482.0,-0.097738475,0.14831027,0.006994307
-0.205466134052284,23.111032864345777,3.412715504795969,1022530212089607.0,0.039095223,0.105549745,0.053420026
-0.14027890383770125,23.23731595641746,3.5438645941373896,1022530244045544.0,0.015882365,0.06523267,0.07052423
-0.12741664764056918,23.4413678810575,3.605840600301498,1022530278460388.0,0.0024433425,0.122653954,-0.0076664463
-0.14194185204676468,23.63178841739483,3.6227147828497746,1022530310415544.0,0.0073302602,0.078671694,0.041202728
0.051520248378798476,23.70721545217184,3.7975656847075703,1022530344829867.0,0.17470719,-0.0129580125,0.09984574
0.3040448000479937,23.848004933100285,3.9113416445432834,1022530379243721.0,0.025656201,0.17030141,0.028985437
0.26073212114307054,24.22375031352099,3.9539408060854644,1022530411195909.0,0.0048868014,0.20450982,0.028985437
0.451481720993404,24.57086460832109,4.015741810538778,1022530445614815.0,0.13439012,0.16297102,0.041202728
0.5839563901630188,24.921847504843356,4.127990913838996,1022530477569815.0,-0.004887034,0.20573157,0.06808078
0.5405561936307911,25.361186735033765,4.259179362802633,1022530511984555.0,0.012217178,0.21550539,0.0693025
0.6488808858250948,25.676994663893137,4.408615926821699,1022530543940440.0,0.05619944,0.15564066,0.08274153
0.6363681624807486,26.105046388458184,4.5367418746876815,1022530578353930.0,-0.057421397,0.26437455,0.053420026
0.5542930164738762,26.57695418984229,4.639803484650077,1022530610306586.0,-0.0085522225,0.22161403,0.059528667
0.5427427936021028,27.002118429857227,4.737741958253082,1022530644719502.0,-0.02809989,0.20695329,0.026541974
0.44063014842563886,27.466920130065393,4.782042978267873,1022530679134450.0,-0.048869293,0.2570442,0.033872355
0.4157799534098443,27.94504042186505,4.802504656858998,1022530711094919.0,0.009773719,0.21794885,-0.016218554
0.3729922560085275,28.31892970407604,4.73506827043477,1022530745504659.0,-0.07941253,0.22039232,-0.044318333
0.20035467937036375,28.838174947610728,4.640555048252475,1022530777465127.0,-0.09285156,0.3156872,-0.06753119
-0.03607035076563528,29.523651433570574,4.474331232792728,1022530811878305.0,-0.16859877,0.370665,-0.08463541
-0.3409203075242405,30.158396585514886,4.37185551457473,1022530843834346.0,-0.124616526,0.31690893,-0.013775095
-0.498157910507412,30.786735638158902,4.395244053128906,1022530878249450.0,-0.04031719,0.29980472,0.038759273
-0.5384955925645185,31.338005863476315,4.518955643723219,1022530910204763.0,-1.1641532e-07,0.2875874,0.0815198
-0.5103208496660683,31.901244963707246,4.6190816160435215,1022530944615180.0,-0.01466087,0.31446546,0.015546411
-0.6512834703113557,32.64035891800898,4.62155767091544,1022530979033096.0,-0.09407329,0.39021268,-0.00400126
-0.7589085958630875,33.32734152236854,4.632831857816001,1022531010988825.0,-0.010995681,0.34256524,0.020433329
-0.7041338731763732,33.93555558214381,4.652457899172301,1022531045404763.0,0.047647335,0.27659184,-0.0015578009
-0.6258216558146235,34.46005081646936,4.6331071124016034,1022531077359502.0,0.029321387,0.29613954,-0.0064447187
-0.627921886828807,34.98715245585848,4.681258130115865,1022531111774607.0,-0.017104328,0.2240575,0.052198295
-0.5902096349429297,35.335335356337346,4.797182228760182,1022531143730700.0,0.067195006,0.13975817,0.06685905
-0.5341224150025409,35.58917473749924,4.937995664230408,1022531178139711.0,-0.06841697,0.12998432,0.06808078
-0.9270848040281664,35.863245196957486,5.0457822710612055,1022531210099502.0,-0.32864535,0.17152312,0.059528667
-1.4484970928327758,36.28280944130464,5.08807079302098,1022531244510388.0,-0.11239923,0.21306193,-0.034544498
-1.3612599045910614,36.604461264511365,5.013634413551864,1022531278929607.0,0.13072494,0.11165839,-0.008888178
-1.2533727149477103,36.879581727714125,5.065946065992613,1022531310885752.0,-0.03420854,0.20450982,0.048533108
-1.4163853182573147,37.35129592092967,5.1685220374291925,1022531345299190.0,-0.091629826,0.2655963,0.0607504
-1.5738854066709438,37.82757871272964,5.313933608031129,1022531377256325.0,-0.07941253,0.25215727,0.10351093
-1.6940230402351586,38.33534286610492,5.569634440117709,1022531411669867.0,-0.021991245,0.23993999,0.14016281
-1.713448240100032,38.73978822459152,5.8137459188047025,1022531443625961.0,-0.029321622,0.21306193,0.116949946
-1.8813608329045852,39.1548899656654,6.016071795625075,1022531478041117.0,-0.140499,0.1996229,0.08762844
-2.1729982993988757,39.518647852909055,6.1953458322531025,1022531509996846.0,-0.14660765,0.20328811,0.10473266
-2.439960803446515,39.955624576858725,6.380959220532034,1022531544407002.0,-0.10629059,0.23627478,0.059528667
-2.4906234946401464,40.466801228187144,6.434360232987706,1022531578825180.0,0.034208313,0.26926148,0.013102952
-2.4914112104241037,40.97125898966334,6.5181718568305165,1022531610778982.0,-0.047647562,0.22894442,0.08762844
-2.5741863739984954,41.31496079080747,6.740447718566466,1022531645192575.0,-0.0036653066,0.1617493,0.09984574
-2.5082116445923255,41.779518584314644,6.822771843916064,1022531677148252.0,0.06475154,0.33156967,-0.005222991
-2.4169494554861273,42.465170082381604,6.793310426569597,1022531711567211.0,-1.1641532e-07,0.31080028,-0.013775095
-2.399537186592147,42.95615285484177,6.814472105409161,1022531743523461.0,0.047647335,0.24849206,0.028985437
-2.2645250352426274,43.50722947270683,6.924573071691266,1022531777936898.0,0.08063402,0.27903533,0.053420026
-2.0381629687164637,43.91970622053386,7.022599047050646,1022531812343773.0,0.15027261,0.11410185,0.06808078
-1.794038393646668,44.115814253650754,7.259710535915638,1022531844308409.0,0.05742117,0.15441892,0.17437123
-1.870688563605794,44.50186602252478,7.632311262544679,1022531878722888.0,-0.06719524,0.18984908,0.16704085
-1.8614137876679573,44.82143643702547,7.836522783575875,1022531910679086.0,0.09162959,0.16052756,0.053420026
-1.64625171061522,45.06766332201518,7.939448753157104,1022531945088252.0,0.07330365,0.11532358,0.0778546
-1.5666269942665987,45.315658804389315,8.194497728295376,1022531977050075.0,0.039095223,0.15197545,0.1975841
-1.3743898947384632,45.667585593015666,8.72564834153395,1022532011458721.0,0.13805531,0.22650096,0.31731358
-1.1298278159717992,46.09863092680605,9.32098454890726,1022532043419867.0,0.12461629,0.23871824,0.2965442
-0.9553532024270825,46.635270050300825,9.885735133287657,1022532077835127.0,0.053755984,0.30224818,0.2598923
-0.8444035295910084,47.33973402814058,10.269448356872694,1022532112248773.0,0.058642894,0.37555194,0.1022892
-0.7775538006692708,48.12261654855252,10.361309974640116,1022532144201586.0,0.009773719,0.46718165,0.020433329
-0.6962666048505525,49.03681786152931,10.428710975047679,1022532178619555.0,0.11606417,0.40243,0.04242446
-0.3574671058022657,49.58056308763239,10.463785141525177,1022532210575961.0,0.19425486,0.22161403,-0.021105472
-0.1803674881245095,50.036789790468056,10.332823805153362,1022532244986950.0,-0.030543353,0.24727035,-0.09318751
-0.3516925649163649,50.615447502241324,10.17277313194611,1022532276947107.0,-0.1111775,0.36822158,-0.056535624
-0.4300927319321153,51.25997404499226,10.203686664056654,1022532311362107.0,0.05742117,0.20084465,0.0693025
-0.25456810905654825,51.46990706698872,10.365548220079505,1022532343318721.0,0.09407305,0.09455418,0.092515364
-0.1054684728689084,51.78000890329355,10.48396167423943,1022532377727627.0,0.067195006,0.208175,0.025320247
0.03540617096637347,52.17358566493614,10.49597522196605,1022532412142002.0,0.06963846,0.15564066,-0.00033607334
0.12150588264157104,52.40845615987661,10.545924376206079,1022532444102940.0,0.015882365,0.14097989,0.05586348
0.16446811430320118,52.77000794976322,10.634850358802288,1022532478518409.0,0.061086357,0.21794885,-0.0027795285
0.3763052134938135,53.180665802962565,10.496762164963156,1022532510474763.0,0.13561185,0.18740562,-0.11884384
0.5163048580570352,53.47886764576976,10.366850824314444,1022532544883877.0,-0.018326059,0.122653954,0.0192116
0.38365475057132625,53.74611311662692,10.433687465304505,1022532576845857.0,-0.10140366,0.19351426,0.025320247
0.18992967642634856,54.25597728493967,10.473350989562693,1022532611254815.0,-0.07696908,0.26193112,0.03631581
0.11756702058036131,54.59541019642217,10.594700082725483,1022532643215961.0,-0.004887034,0.092110716,0.06808078
0.1277167779955298,54.83314959145372,10.6362011054507,1022532677631221.0,-0.007330493,0.21184021,-0.019883744
0.09901656944303902,55.41668868162037,10.604464689544242,1022532712045232.0,0.0048868014,0.30224818,0.008216035
0.22449124459373745,55.78963406098431,10.696588805060712,1022532744002263.0,0.12705974,0.10677148,0.0815198
0.49451577747856823,56.000773482430965,10.862427219743363,1022532778416065.0,0.10506862,0.1580841,0.06808078
0.612115459180727,56.411518827001835,10.97100132433335,1022532810368513.0,0.04886906,0.253379,0.0607504
0.8124025491957264,56.864595523903816,11.141739732521657,1022532844783513.0,0.15515952,0.16907966,0.1230586
1.1247770671424249,57.0883535316286,11.428638678338231,1022532876743773.0,0.15271607,0.08966726,0.15726702
1.2982891815637922,57.307980441314534,11.682589509818044,1022532911159086.0,0.029321387,0.13975817,0.098624006
1.3578763992799703,57.55604482057437,11.822790446028442,1022532945573200.0,0.045203872,0.09333245,0.047311377
1.429801124360673,57.68407790960023,11.863639607950061,1022532977529398.0,0.006108529,0.04812846,0.00088565797
1.3031884949971917,57.853742366843264,11.797515720438936,1022533011944659.0,-0.11484269,0.1531972,-0.055313893
1.1470884042471599,58.21618775746348,11.689002508442636,1022533043900284.0,-0.012217411,0.18984908,-0.056535624
1.3199005186263553,58.4541021502782,11.607478635461414,1022533078316169.0,0.14538568,0.067676134,-0.012553364
1.5193126333332545,58.62107270678899,11.672827775364196,1022533110272419.0,0.058642894,0.11165839,0.08274153
1.5509873745385772,58.73972470433524,11.84234117994785,1022533144681794.0,-0.021991245,0.022472143,0.059528667
1.4605997330980083,58.838270318825174,11.866127856054987,1022533176643877.0,-0.06719524,0.11043666,-0.02965758
1.3534995886488121,59.09184718920324,11.761241503786026,1022533211054190.0,-0.03298681,0.099441096,-0.06753119
1.231874457025401,59.23036167162757,11.623280177448967,1022533245473200.0,-0.11362096,0.07500651,-0.056535624
1.0622993839199615,59.30904480353124,11.59684189506914,1022533277429502.0,0.018325828,0.029802516,0.015546411
1.3796613858843907,59.52674672170276,11.604917946356538,1022533311843409.0,0.19792005,0.12143222,-0.0015578009
1.6718234231718148,59.337592575931836,11.586354658545382,1022533343800700.0,0.05009079,-0.22553894,-0.019883744
1.4650608676037764,59.228569754617425,11.506843282487585,1022533378214607.0,-0.19303337,0.1617493,-0.10418308
1.2344983472138948,59.56039016935478,11.220005212004352,1022533410167992.0,-0.0158826,0.09577591,-0.15671745
1.3471980134352737,59.5861172477835,11.080906381240707,1022533444584450.0,0.067195006,0.0065896586,0.021655058
1.3020478323247724,59.83183773266334,11.14713052125207,1022533476542627.0,-0.123394795,0.24849206,0.009437764
0.9013854387815792,60.442589292881536,11.0803941367178,1022533510958044.0,-0.22968525,0.25460073,-0.052870438
0.635997931856608,60.66099120411946,11.078932695661857,1022533545371950.0,-0.0061087636,0.009033117,0.06563732
0.7519351139492034,60.770999309226625,11.300994197557353,1022533577328617.0,0.09285132,0.14220163,0.13038898
0.8863347657667401,61.138238588301114,11.435070137165946,1022533611744086.0,0.0073302602,0.19595772,-0.0015578009
0.7674221433272496,61.50759647049633,11.395594367130709,1022533643699867.0,-0.11362096,0.21184021,-0.008888178
0.6076470427301238,61.96487318653033,11.455470373953256,1022533678112680.0,-0.0085522225,0.22039232,0.059528667
0.7234967250072402,62.227131161194414,11.571306970626337,1022533710072107.0,0.103846885,0.055458836,0.04364619
0.7870214340547226,62.25312073655572,11.604320501287763,1022533744486169.0,-0.07941253,0.038354624,0.01798987
0.5541839177748314,62.48816623214415,11.701432112639221,1022533776444034.0,-0.105068855,0.18740562,0.07296769
0.5745711644415229,62.74611810625936,11.776970607366993,1022533810855909.0,0.11362072,0.034689434,-0.013775095
0.7860582506622029,62.709457735339704,11.6387467746149,1022533845273148.0,0.04398215,0.059124023,-0.09196578
0.7862330343883402,63.20612800293217,11.458658610796617,1022533877225127.0,-0.009773952,0.43786013,-0.10296135
0.7745953106884765,64.0303793889421,11.262947316861855,1022533911643877.0,-0.001221844,0.24360517,-0.0797485
0.7414326245884969,64.26761238475183,11.209121558402437,1022533943601273.0,-0.026878163,0.105549745,0.027763706
0.7010949263894019,64.63415166159258,11.318260024988236,1022533978015232.0,-0.01343914,0.26437455,0.04364619
0.6951447149532883,65.08444696495837,11.32454671675425,1022534009966377.0,-0.0158826,0.18862733,-0.0064447187
0.6247945424945969,65.39726129175439,11.46536015059441,1022534044388461.0,-0.045204107,0.17885351,0.13894108
0.6022193460352596,65.85438158458071,11.705446636150754,1022534076343773.0,0.045203872,0.27170494,0.09129363
0.8137064269560803,66.29695830204955,11.763835144215093,1022534110759242.0,0.1172859,0.14342335,-0.0076664463
0.9349810872433232,66.46347275636693,11.824498648125038,1022534145173565.0,0.017104097,0.067676134,0.09129363
0.9479308599411361,66.6880182699439,12.004210182577117,1022534177125492.0,-0.009773952,0.194736,0.058306944
0.8457307127218197,67.13864498928712,12.014123733039145,1022534211545648.0,-0.085521184,0.22283578,-0.0064447187
0.6981181203810841,67.4681029065213,12.103097852005556,1022534243501534.0,-0.045204107,0.10921493,0.115728214
0.7511428413129204,67.58736740318415,12.384261162274532,1022534277917211.0,0.07941229,0.045685,0.116949946
0.8803800100260779,67.7544254600905,12.482510273819852,1022534309873877.0,0.03176485,0.16907966,-0.0027795285
0.8552673005473839,68.11816474984032,12.434061371433163,1022534344288565.0,-0.020769518,0.11532358,-0.019883744
0.8364545995985624,68.22668535822041,12.470185537448234,1022534376245909.0,-0.009773952,0.04446327,0.058306944
0.8075793904124369,68.3842748227502,12.583261500278446,1022534410656221.0,-0.009773952,0.078671694,0.033872355
0.7853541757684515,68.46547685258957,12.624587523028929,1022534445070909.0,-0.019547787,0.04324154,0.0192116
0.760591481966915,68.57093496008687,12.663249187109159,1022534477032211.0,0.0036650738,0.054237105,0.01798987
0.7465037608553228,68.74961190199838,12.681212729931623,1022534511446482.0,-0.036652,0.14831027,-0.00033607334
0.6877910940645681,69.01659487854427,12.683736923813646,1022534543403982.0,-0.0085522225,0.11043666,0.0192116
0.7444908123695366,69.16657185076936,12.82700035517726,1022534577818044.0,0.06475154,0.053015374,0.12061514
0.8603404974756319,69.30387993331375,13.060961838824777,1022534609770075.0,0.03298658,0.09577591,0.12183687
0.7993528159517185,69.58956928071353,13.322350167547683,1022534644186586.0,-0.051312752,0.13975817,0.15726702
0.8017151004148299,69.70648988123452,13.62596159896929,1022534676142107.0,0.059864625,0.002924472,0.13894108
0.8758273041449833,69.69205449161035,13.74892504965045,1022534710562263.0,-0.043982375,0.061567485,-0.016218554
0.6310897806164496,69.97800634442252,13.702138648799899,1022534744972211.0,-0.14782937,0.13364953,-0.017440282
0.33192732278600223,70.04820198293027,13.679200364831845,1022534776933617.0,-0.1734857,-0.02517531,-0.011331636
0.06338981949575041,70.06850406477784,13.695501407877156,1022534811341482.0,-0.06963869,0.08355861,0.008216035
0.04151462028541594,70.30346205667618,13.708438093958996,1022534843305075.0,0.018325828,0.14342335,0.011881223
0.023576902451244382,70.50865148029972,13.750726616190926,1022534877720909.0,-0.041538917,0.05057192,0.049754836
-0.05788574404513254,70.55128464230336,13.954500633382017,1022534909677680.0,-0.047647562,0.042019814,0.15238011
-0.13856090765057097,70.7184990974221,14.168901501984555,1022534944091898.0,-0.0061087636,0.054237105,0.052198295
-0.12036115490265611,70.75245116555038,14.204802529660792,1022534978507836.0,-0.001221844,0.0017027408,0.0057725757
-0.22999878117365705,70.82763430013665,14.226139208124152,1022535010460544.0,-0.11728615,0.061567485,0.0192116
-0.5246112608318337,70.86298636689108,14.239552755014804,1022535044875023.0,-0.15515976,-0.005627636,0.00088565797
-0.726998802091669,70.8256445956118,14.246101945039086,1022535076832263.0,-0.046425834,-0.06549238,0.008216035
-0.7808114886622286,70.73254677284322,14.214278030643548,1022535111250805.0,-0.01343914,-0.015401471,-0.052870438
-0.8343616602233842,70.74184246298105,14.067439844692586,1022535143208513.0,-0.057421397,0.045685,-0.07363984
-0.997899254805525,70.83380698393982,13.951003502370476,1022535177622732.0,-0.039095458,-0.01784493,-0.04798352
-0.9562495060449765,70.71544027819424,13.900852742263188,1022535209579607.0,0.05619944,-0.09237043,-0.018662013
-0.9213372671620415,70.67186741477141,13.854591338987708,1022535243995388.0,-0.023212973,0.04812846,-0.02965758
-0.9824999298819965,70.766825532021,13.776353101793225,1022535275952419.0,-0.017104328,0.046906732,-0.038209684
-0.9429501959873031,70.76227763619221,13.734816694741568,1022535310367471.0,0.04398215,-0.10580944,-0.024770662
-0.9429504280352101,70.40151753431999,13.669917808402174,1022535344778825.0,-0.06841697,-0.19377398,-0.051648706
-1.2424628907425608,70.22811337527426,13.517392128249956,1022535376738982.0,-0.21624623,0.028580789,-0.10540481
-1.5369878738009837,70.28455292440944,13.321155839963009,1022535411146377.0,-0.057421397,-0.039836057,-0.06264427
-1.6108380265602515,70.0501613146845,13.279230072132163,1022535443099294.0,-0.06475178,-0.14368308,0.013102952
-1.8484005622687556,69.9107760267957,13.336831081446096,1022535477527055.0,-0.15638149,-0.045944706,0.01798987
-2.121400544624834,69.79328432600875,13.331567782164885,1022535509483721.0,-0.13194689,-0.088705234,-0.0027795285
-2.313900617958328,69.52632414788329,13.396343784835052,1022535543897940.0,-0.06353005,-0.14490479,0.046089645
-2.4315007366840455,69.3690199795229,13.40613047348161,1022535575856013.0,-0.07086042,-0.04227952,-0.040653147
-2.5660758608227225,69.20889721633615,13.308069112320421,1022535610269450.0,-0.073303886,-0.14612651,-0.019883744
-2.809675890023048,68.98288700276225,13.373107614093248,1022535644681898.0,-0.18325953,-0.03617087,0.074189425
-3.2610882268928596,69.02377016551993,13.509506692506662,1022535676643877.0,-0.28466308,0.028580789,0.059528667
-3.784075520812898,68.92454734724531,13.616020161405196,1022535711057367.0,-0.21258104,-0.13879615,0.046089645
-4.062150498325267,68.65086827697579,13.678831805110663,1022535743015232.0,-0.12217306,-0.089926966,0.027763706
-4.353875478393186,68.55855795511766,13.693907850048848,1022535777429763.0,-0.15393803,-0.03617087,-0.0015578009
-4.539200533754745,68.40764128190314,13.712182030991245,1022535809386742.0,-0.061086584,-0.108252905,0.01798987
-4.6986256344525374,68.2071810478383,13.723933078124078,1022535843802627.0,-0.10018193,-0.06427065,-0.0064447187
-4.989913118272038,68.14960819508133,13.677671673724168,1022535878217211.0,-0.1942551,-0.0044059083,-0.0223272
-5.310688059796837,68.13790390161397,13.7097708430806,1022535910175075.0,-0.11850787,-0.009292826,0.058306944
-5.548600594366187,68.19320595140468,13.913934221619536,1022535944586846.0,-0.20769411,0.09455418,0.14260627
-6.172475283772663,68.42912643920346,14.121733236883033,1022535976546950.0,-0.39828393,0.11165839,0.047311377
-6.677175101582663,68.47314100180374,14.101109313727058,1022536010954919.0,-0.056199674,-0.12535712,-0.045540057
-6.6593253312373815,68.07293703358293,14.055858548973212,1022536042918877.0,-0.026878163,-0.2279824,0.008216035
-7.000575278171141,67.81848934012191,14.15537202210531,1022536077335023.0,-0.27122405,-0.02395358,0.08274153
-7.399925161125069,67.75699759260358,14.27479611429985,1022536109292575.0,-0.10262539,-0.103365995,0.03631581
-7.428625369534321,67.39098749242045,14.3526971073902,1022536143706638.0,0.0073302602,-0.21332166,0.0607504
-7.582800456795091,67.05422097797718,14.452958719876806,1022536175665492.0,-0.17837262,-0.11924847,0.015546411
-7.977950354994492,66.83661075668739,14.345709864317827,1022536210078877.0,-0.18325953,-0.1119181,-0.11151345
-8.2389628688107,66.60018805175739,14.135561091339381,1022536244495752.0,-0.072082154,-0.12780058,-0.077305034
-8.336788001979643,66.31714648485216,14.016635388631526,1022536276452471.0,-0.06475178,-0.17300457,-0.07241811
-8.622737989169577,65.9903363604311,13.876399064184245,1022536310866690.0,-0.21624623,-0.13635269,-0.063866004
-8.989537894126462,65.8326821907748,13.783460838737872,1022536342824607.0,-0.13072516,-0.08259659,-0.04798352
-9.065050566262338,65.59284699089964,13.714011952690154,1022536377239242.0,-0.012217411,-0.15834382,-0.0064447187
-9.273213107060787,65.27515545397823,13.729048635797374,1022536409192107.0,-0.2064724,-0.1375744,0.014324682
-9.54297561238006,65.0095077797814,13.674562238937678,1022536443612523.0,0.009773719,-0.1705611,-0.08707887
-9.37532598149199,64.652266284065,13.502874070411542,1022536475568982.0,0.08063402,-0.1864436,-0.08097021
-9.474813630413584,64.29973118185039,13.371912739912544,1022536509984971.0,-0.15027283,-0.18400013,-0.06997465
-9.767326108742035,64.08597096349979,13.261426391044756,1022536544399971.0,-0.10751232,-0.049609892,-0.039431415
-9.951863670999685,63.9410042864611,13.22431312091479,1022536576357002.0,-0.140499,-0.14123961,0.0057725757
-10.312976093930676,63.52406922869564,13.219964182647795,1022536610764919.0,-0.1734857,-0.22676069,-0.03576622
-10.515363645217274,63.16901521422132,13.046701017528976,1022536642729138.0,-0.06719524,-0.13879615,-0.115178645
-10.661138758829377,62.952979996041606,12.888264705836484,1022536677141013.0,-0.09407329,-0.11924847,-0.06997465
-10.939738745447594,62.66967593783311,12.72812652979856,1022536709102523.0,-0.20158547,-0.17300457,-0.098074436
-11.328938647399506,62.347240803827894,12.562252719072479,1022536743517211.0,-0.1527163,-0.1534569,-0.056535624
-11.488801233459517,62.04687424869166,12.513326956983509,1022536775475648.0,-0.036652,-0.16445246,-0.012553364
-11.56947639809628,61.690051637405915,12.438978076191118,1022536809885544.0,-0.073303886,-0.20476955,-0.07119638
-11.81850140326557,61.32309763330144,12.26571490269279,1022536841846950.0,-0.18081607,-0.14856997,-0.09929617
-12.104013892917932,61.13296239585507,12.078841104595776,1022536876263096.0,-0.072082154,-0.070379294,-0.077305034
-12.124576607107242,60.911764684988285,11.95067977056989,1022536910677784.0,0.019547556,-0.13024405,-0.06875292
-12.124839323568604,60.664510594459585,11.767179111806485,1022536942635857.0,-0.05986486,-0.108252905,-0.10784827
-12.404314314142809,60.52538780804404,11.588530309427954,1022536977046846.0,-0.15027283,-0.077709675,-0.078526765
-12.55113940501445,60.32337117638434,11.433729625221078,1022537009001638.0,0.0036650738,-0.18400013,-0.0883006
-12.523314660818185,59.828998676746195,11.334530764225557,1022537043423930.0,-0.018326059,-0.21454337,0.0045508444
-12.613702301256078,59.58550708152746,11.367417432283702,1022537075380961.0,-0.056199674,-0.09359216,0.0057725757
-12.734627433295685,59.29605942320012,11.342856011853419,1022537109796846.0,-0.05375621,-0.22187376,-0.027214117
-12.829302566690254,58.92586792465524,11.322105226456557,1022537141753721.0,-0.046425834,-0.17178285,-0.0027795285
-12.930365212347766,58.61865778041609,11.277593823866628,1022537176168982.0,-0.07452562,-0.162009,-0.03576622
-13.159790253664443,58.25229768502472,11.206744943499956,1022537210584763.0,-0.13561209,-0.16933939,-0.040653147
-13.388427778385935,58.058243547037286,11.09385673578794,1022537242541117.0,-0.10018193,-0.071601026,-0.07363984
-13.565877866397182,57.68838344699462,10.967182899176667,1022537276957367.0,-0.105068855,-0.31839037,-0.04676179
-13.832577854289504,57.05297967934858,10.897082158737463,1022537308914607.0,-0.1979203,-0.30861655,-0.036987953
-14.33062767082511,56.58459465310446,10.744333340100312,1022537343329450.0,-0.26633713,-0.16689593,-0.12250902
-14.786502499509066,56.24205313804828,10.42757029059646,1022537375287940.0,-0.2150245,-0.19255224,-0.17748685
-15.140877430080623,55.76544313434871,10.105596605340295,1022537409700752.0,-0.17592916,-0.23897797,-0.14327842
-15.48352735376502,55.42850161496029,9.857170998392748,1022537441659450.0,-0.1612684,-0.13513097,-0.12373075
-15.693089913140025,55.11814146192267,9.620334741120564,1022537476076013.0,-0.08429945,-0.1864436,-0.1005179
-15.964864916743494,54.66629392421661,9.42917344713047,1022537510490492.0,-0.19669856,-0.25852564,-0.09929617
-16.39151477043106,54.24500247138053,9.238935290134823,1022537542448513.0,-0.2235766,-0.16933939,-0.09563097
-16.69102725297707,53.94295482656071,9.069123979081999,1022537576865336.0,-0.041538917,-0.19988263,-0.07486157
-16.692864967091086,53.513875866734494,8.937510786478068,1022537608814398.0,-0.0158826,-0.20232609,-0.08097021
-16.820177595494066,53.224953207342985,8.696474536000231,1022537643236846.0,-0.05864313,-0.13024405,-0.14572188
-16.809502819958904,52.94234913811858,8.47044891100757,1022537675188930.0,0.058642894,-0.19133052,-0.09196578
-16.802153059542437,52.567764051664,8.26502512787879,1022537709609711.0,-0.07574735,-0.17911321,-0.13839151
-17.050653070789267,52.24447252981777,7.901099618967385,1022537741567002.0,-0.19547683,-0.11924847,-0.25323406
-17.500052925632556,52.018899816503,7.2993886946246045,1022537775981690.0,-0.17104223,-0.15712208,-0.28622076
-17.48815316819351,51.5649522846292,6.866990106141855,1022537810389711.0,0.1295032,-0.28051677,-0.17870858
-17.31831603085321,51.18119830426437,6.5943270229693125,1022537842343305.0,0.013438909,-0.14123961,-0.1212873
-17.50845360426281,50.827000686941666,6.377790748757353,1022537876770909.0,-0.16859877,-0.23286933,-0.0883006
-17.7407661203177,50.37324674819626,6.216602573415344,1022537908728148.0,-0.045204107,-0.23531279,-0.09929617
-17.684591402388133,49.907136733956584,5.9752163216415894,1022537943138565.0,0.08185575,-0.24019969,-0.12495248
-17.592979197274232,49.489607771059006,5.700890739833512,1022537975096898.0,-0.026878163,-0.17422631,-0.16649128
-17.748729301482,49.169097629857404,5.365442064128913,1022538009515961.0,-0.10018193,-0.17178285,-0.16893475
-17.84812943603002,48.811506118521166,5.063991500776004,1022538041473357.0,0.009773719,-0.21209991,-0.14938708
-17.77112973312501,48.35965857866651,4.778942783216542,1022538075889919.0,0.021991014,-0.2035478,-0.13472632
-17.805167437490606,47.91568604791647,4.53204403860569,1022538110304502.0,-0.04031719,-0.26341256,-0.09074406
-17.79046766409789,47.305132244797456,4.419680830259237,1022538142262732.0,0.06963846,-0.36848128,-0.045540057
-17.628068041834002,46.73270981928182,4.235607036155404,1022538176677680.0,0.06475154,-0.17911321,-0.13839151
-17.576443300601344,46.44476825357108,3.9681939487871087,1022538208635127.0,0.018325828,-0.18522185,-0.12250902
-17.536631065505528,45.994845712965805,3.7419451899647904,1022538243051325.0,0.019547556,-0.23042586,-0.11762211
-17.49174382042814,45.58466674720219,3.4799570933191237,1022538275003357.0,0.015882365,-0.2108782,-0.1506088
-17.520706527832626,45.16869418834523,3.180470888551328,1022538309424346.0,-0.024434704,-0.21698684,-0.14205669
-17.521494243444696,44.71450276051337,2.918482791905661,1022538341382159.0,0.023212746,-0.25974736,-0.14327842
-17.467244522716186,44.21033026612899,2.606659097678271,1022538375796377.0,0.008551992,-0.25608218,-0.16771302
-17.492094734574746,43.68323279787262,2.238222948444413,1022538410208200.0,-0.010995681,-0.2768516,-0.19825625
-17.456832479427373,43.104353982402394,1.7857475299251766,1022538442169555.0,0.04886906,-0.33060768,-0.28866422
-17.39567026494663,42.522219048498656,1.126024162580995,1022538476586430.0,-0.001221844,-0.23286933,-0.33997685
-17.41282046789236,42.14109006496165,0.6220987942042221,1022538508543721.0,0.015882365,-0.19866088,-0.18848242
-17.310708285522555,41.64820506689208,0.32243759022086094,1022538542958357.0,0.03176485,-0.28906888,-0.13106112
-17.351745966517793,41.10598870776177,0.07112448798023849,1022538574912159.0,-0.072082154,-0.29273406,-0.14694361
-17.53278355248557,40.59131621962031,-0.24271170403001247,1022538609331534.0,-0.0781908,-0.22065201,-0.16038264
-17.60847120603234,40.16162476862729,-0.5121372946242664,1022538641288982.0,0.0012216112,-0.25608218,-0.116400376
-17.549233988523465,39.628927308284126,-0.685098601297525,1022538675705700.0,0.034208313,-0.26219082,-0.07363984
-17.546871723655514,39.14829230114065,-0.897434874139186,1022538710118513.0,-0.04031719,-0.2035478,-0.13594805
-17.611796883189463,38.75106332459781,-1.1649354621895585,1022538742078669.0,-0.018326059,-0.2279824,-0.14327842
-17.48317243962475,37.87801182399479,-1.6254348360650683,1022538808444659.0,0.042760417,-0.22431722,-0.11151345
-17.475210179103346,37.46011426230747,-1.8544835905010586,1022538842867627.0,-0.021991245,-0.18400013,-0.1212873
-17.459722909128196,37.09841025615584,-2.125659178550813,1022538874819919.0,0.059864625,-0.22065201,-0.16526955
-17.258385825180582,36.640437726567704,-2.477557835665623,1022538909237211.0,0.102625154,-0.20965645,-0.17993031
-17.127923655011365,36.27409622867017,-2.8101583761290834,1022538941198357.0,0.047647335,-0.20599127,-0.17259993
-16.97296152404613,35.89924864231795,-3.1278445687866743,1022538975613200.0,0.12705974,-0.17300457,-0.14694361
-16.71028698141978,35.55852602833524,-3.4076432869609037,1022539010022211.0,0.107512064,-0.18155667,-0.12006557
-16.476050131820852,34.851374426515854,-3.794380232857339,1022539076403513.0,0.052534252,-0.15590036,-0.077305034
-16.313212993040153,34.56098287035483,-3.8942309536029316,1022539108360752.0,0.122172825,-0.15956554,-0.038209684
-15.611464029785516,33.547231511991775,-4.2873553776713305,1022539174730127.0,0.17837238,-0.19010878,-0.18481722
-15.279402041001589,33.20895888989174,-4.631554042085826,1022539209145857.0,0.18203758,-0.2573039,-0.13106112
-14.639165312760683,32.16281185894407,-4.777390367787211,1022539243565752.0,0.48624822,-0.6959048,-0.024770662
-13.702566281012313,31.195695840249453,-4.826141129228226,1022539275523513.0,0.38850984,-0.2573039,-0.05409217
-13.245466898996915,30.897498193068948,-4.957802460242086,1022539309938305.0,0.18570276,-0.22920412,-0.055313893
-12.68021758708473,30.195331966496134,-4.978115747110159,1022539341896742.0,0.41050097,-0.43323296,0.028985437
-11.84625602247633,29.561134586554665,-4.976777189272244,1022539376312002.0,0.3824012,-0.20232609,-0.028435849
-11.22325677247377,29.231630558536544,-4.987202984235692,1022539408269398.0,0.27977592,-0.16078728,0.032650623
-10.804132351299867,28.925207908260727,-4.878152020265706,1022539442686065.0,0.13072494,-0.1204702,0.057085212
-10.60585774488702,28.807453706996036,-4.790752896031296,1022539474639138.0,0.10140342,-0.0007407181,0.025320247
-9.905158821688099,28.469533181763577,-4.757888311754743,1022539543474659.0,0.29688013,-0.16445246,0.08274153
-9.461621912182087,28.28895403594346,-4.625689226761839,1022539575432627.0,0.14660741,-0.027618766,0.050976563
-9.34305974940475,28.322031106134677,-4.584713202219032,1022539609849555.0,0.006108529,0.037132896,-0.005222991
-9.208222583806286,28.26587685162194,-4.601963991298284,1022539641806117.0,0.17104201,-0.09725734,0.0045508444
-8.753223195242448,28.136116560244982,-4.524587997831329,1022539676222992.0,0.21746773,-0.0044059083,0.0607504
-7.987949283615865,27.929902032220404,-4.4291128245655464,1022539742595492.0,0.31031916,-0.077709675,-0.014996827
-7.449037474325307,27.83645421030449,-4.443174255985696,1022539777012211.0,0.1624899,-0.005627636,0.030207165
-7.337037788219298,27.866924881347916,-4.322350165268121,1022539808969086.0,0.015882365,0.04324154,0.0693025
-6.810201184853883,28.026547543551423,-4.218124999634105,1022539875343825.0,0.11239899,0.027359061,0.025320247
-6.658301549041864,28.059099615422717,-4.1612239905485575,1022539909758877.0,0.08063402,0.013920035,0.01798987
-6.484351919392854,28.188795204731353,-4.115737332925485,1022539941717315.0,0.102625154,0.1287626,0.038759273
-6.197527397069644,28.378059642586013,-4.077123807116248,1022539976128357.0,0.17104201,0.045685,-0.00400126
-5.940802835364163,28.406080317807664,-4.095599594557589,1022540008090232.0,0.08307748,0.009033117,0.013102952
-5.685478291017703,28.432682392643652,-3.9038612070197583,1022540042507107.0,0.19547659,0.042019814,0.14871491
-5.32725382575673,28.553084388576433,-3.597497917320117,1022540076922523.0,0.102625154,0.06278921,0.16215394
-5.2866540747676085,28.690304971584677,-3.2817240006678623,1022540108880961.0,0.0073302602,0.08233688,0.16459739
-5.105354464299596,28.91203188546515,-3.0567356405625707,1022540143296221.0,0.17348546,0.1446451,0.06808078
-4.736892488993123,29.13001489200405,-2.946761535873914,1022540175254242.0,0.18692449,0.06523267,0.046089645
-4.433792976740339,29.22740440851263,-2.8359605731592707,1022540209670909.0,0.10629033,0.099441096,0.058306944
-4.321968290566091,29.503487366183453,-2.7586239423512064,1022540241627940.0,0.025656201,0.15686238,0.01798987
-4.271656063933403,29.77403923223419,-2.7707603737871636,1022540276044971.0,0.06352982,0.12631914,-0.0223272
-4.020006514859423,30.0282286005113,-2.826121770577822,1022540310460127.0,0.19058968,0.12143222,-0.02354893
-3.639469548558604,30.287599071287925,-2.832172568699685,1022540342417992.0,0.19181141,0.17030141,0.01798987
-3.281857580480486,30.61310088740707,-2.7954840410540673,1022540376830544.0,0.15149434,0.15686238,-0.0027795285
-2.9808580502201023,31.01107123910794,-2.833472311125023,1022540408791846.0,0.2125808,0.24727035,-0.021105472
-2.4763337182100744,31.404035499556954,-2.838783748877761,1022540443208877.0,0.24923268,0.1446451,-0.0027795285
-2.1286967290536176,31.820205829120855,-2.87423452215839,1022540475162523.0,0.12828147,0.30591336,-0.044318333
-1.96612210513909,32.294632517697714,-2.9873458671378077,1022540509582159.0,0.040316954,0.1580841,-0.043096602
-1.9375973472785826,32.61079045286639,-2.999346660518808,1022540541541013.0,-0.001221844,0.19595772,0.01798987
-1.8975226135456331,33.02641720304611,-3.027320579175824,1022540575956013.0,0.035430036,0.20206636,-0.038209684
-1.8770478639336812,33.4455439389695,-3.0976444613944656,1022540610365805.0,-0.020769518,0.22527924,-0.025992386
-1.9618355073430294,33.87851428490081,-3.122682742562655,1022540642331065.0,-0.0781908,0.23505306,-0.00033607334
-2.092298129260822,34.37700344833852,-3.098594205372919,1022540676746586.0,-0.0036653066,0.25460073,0.0057725757
-2.0299108982552228,34.869648712272244,-3.094495012665111,1022540708705127.0,0.021991014,0.31813067,0.015546411
-2.1116360633706375,35.83407497916522,-3.1312189246586555,1022540743117784.0,-0.090408094,0.64921933,-0.10907
-2.4406362421872494,37.728383636097504,-3.380493480922389,1022540809495857.0,-0.046425834,0.26803976,0.13771935
-2.432148966644212,38.18585394167889,-3.1656069749399527,1022540841452680.0,0.040316954,0.21672711,0.06319386
-2.490686650828017,38.604893181217385,-3.0817559888966177,1022540875870023.0,-0.15393803,0.21672711,0.041202728
-2.886449046639993,39.064969881835594,-2.967192529081501,1022540910285232.0,-0.1576032,0.23016614,0.079076335
-2.9103369719711925,39.94261692507953,-2.7252424879832544,1022540976660596.0,-0.06597351,0.30224818,0.008216035
-3.081662053991287,40.5261746141724,-2.7250807924767027,1022541008612680.0,-0.06597351,0.3205741,0.009437764
-3.0238248379704973,41.17962614270021,-2.6634547867376153,1022541043034502.0,0.103846885,0.33890006,0.0192116
-2.860375196205754,41.90537121260757,-2.710105550959875,1022541074987992.0,0.030543119,0.41709074,-0.06142254
-2.9650253456926166,42.598197699998565,-2.7886544275219034,1022541109408148.0,-0.12095133,0.2912526,0.009437764
-3.2161503501862807,43.14343042265684,-2.714817793916671,1022541141366950.0,-0.10384712,0.30469164,0.03753754
-3.5371887120934895,45.4484886282378,-2.2106791558232666,1022541308532107.0,-0.0024435753,0.24604863,0.011881223
-3.6953890292095855,46.24117323540811,-2.1926414179829563,1022541374901013.0,-0.08796464,0.21184021,-0.038209684
-3.8843016085972537,46.69599994308687,-2.2657652973192848,1022541409322992.0,-0.086742915,0.22772267,-0.030879311
-4.127289356046853,47.49235956744531,-2.229702574968714,1022541475697575.0,-0.021991245,0.17396659,0.06563732
-4.163689775875893,47.94834447829558,-1.9953650179389144,1022541542071013.0,0.0024433425,0.105549745,0.074189425
-4.097802777244487,48.32199195706202,-1.7141275099219484,1022541608442188.0,-0.05253448,0.18007523,0.006994307
-4.245765603661763,49.057801634395126,-1.8160521678807415,1022541674817657.0,0.021991014,0.15564066,-0.019883744
-4.224415853273735,49.387153449013006,-1.8630135709548856,1022541709239584.0,-0.029321622,0.16419277,-0.033322766
-4.399503423656697,49.732798851913735,-1.9125518322320656,1022541741196198.0,-0.13072516,0.18129697,-0.012553364
-4.4192793229257825,50.36300030372758,-1.682624661227542,1022541876403282.0,0.030543119,0.055458836,0.026541974
-4.386992298909762,50.90202263901189,-1.5153120480106816,1022541942777709.0,-0.048869293,0.1910708,-0.025992386
-4.4571674550357745,51.18904309485286,-1.5979252820668015,1022541974733282.0,-0.019547787,0.1446451,-0.019883744
-4.435905206747897,51.4752574470613,-1.6071742166942102,1022542009148698.0,0.05009079,0.08355861,-0.0076664463
-4.33178051112537,51.53827809180459,-1.5859250382153514,1022542041110678.0,0.030543119,0.046906732,0.041202728
-4.347793231300124,51.70899254620312,-1.549236511679839,1022542075528282.0,-0.024434704,0.11043666,-0.021105472
-4.364505950089047,51.88416949592515,-1.6040729082454943,1022542109944219.0,0.0036650738,0.072563045,-0.019883744
-4.353568675809316,51.999340095481266,-1.5860612274757602,1022542141902136.0,0.0024433425,0.05057192,0.03753754
-4.326881429777304,52.0758171285955,-1.4753477639391803,1022542176319948.0,0.052534252,0.03224598,0.04364619
-4.175069280896378,52.11722529243761,-1.4901485534294627,1022542208276980.0,0.07086019,0.035911165,-0.039431415
-4.158532027156421,52.235702291054764,-1.517072471106488,1022542242694428.0,-0.03543027,0.05179365,0.014324682
-4.182682222758102,52.22889799535443,-1.4560108250713786,1022542274648907.0,0.0378735,-0.0997008,0.06441559
-4.047320073908512,51.82850041824887,-1.1941849939407574,1022542309068542.0,0.05131252,-0.20599127,0.19147544
-3.9759203655253503,51.632940173965466,-0.902084195814871,1022542343485990.0,0.046425603,-0.008071095,0.057085212
-3.892095650527978,51.63567337058986,-0.8757600215637943,1022542375439428.0,0.021991014,0.017585224,0.0106594935
-3.844933422595373,51.56235053028407,-0.8134340169212884,1022542409860990.0,0.05009079,-0.083818324,0.047311377
-3.7511337149253543,51.43654633703566,-0.7469473763677058,1022542441819271.0,0.010995447,-0.02517531,0.021655058
-3.8459838672903994,51.46752340797986,-0.7030838559674594,1022542476235417.0,-0.06963869,0.00048100948,0.027763706
