Rot_X (deg),Rot_Y (deg),Rot_Z (deg),Gyro_Time (ns),Gyro_X,Gyro_Y,Gyro_Z
0.0,0.0,0.0,1022762339546807.0,-0.026878163,0.028580789,0.0900719
0.08828718841736957,0.14376447872989356,0.1437009336280894,1022762373965140.0,0.13561185,0.13364953,0.026541974
0.4345241809845252,0.5082223714301684,0.12295014770410612,1022762405924515.0,0.20036352,0.208175,-0.036987953
0.7276486990606494,0.7103492948727752,0.06548875461858755,1022762440341703.0,0.061086357,0.0017027408,-0.0064447187
0.6311360445958702,0.6940764071110264,0.15432723257501135,1022762474754932.0,-0.13561209,0.03224598,0.07052423
0.33704858048931685,0.8566719683357811,0.1964013936014139,1022762506718994.0,-0.1612684,0.11288012,-0.034544498
-0.09677628615679607,1.0030614406706146,0.12389001179171327,1022762541135297.0,-0.3103194,0.056680568,0.01798987
-0.7872384202343583,1.2255069457558987,0.28653906572415855,1022762573097380.0,-0.2235766,0.4574078,-0.0015578009
-0.9256635344922757,1.7802585571745704,0.11559026106648612,1022762607514255.0,-0.05986486,0.1996229,-0.07486157
-1.041513655905732,2.1572289364014114,0.0026145503089376187,1022762639474724.0,-0.06719524,0.194736,-0.052870438
-1.2327012321860862,2.5445057069463632,-0.07357182890751066,1022762673891547.0,-0.13439035,0.21306193,-0.034544498
-1.5223261966003319,2.955776056325882,-0.15137256670230764,1022762705850869.0,-0.15638149,0.22527924,-0.04920525
-1.7758137172182684,3.3080528548425203,-0.2609839158396689,1022762740269672.0,-0.0989602,0.13364953,-0.06508773
-2.0048012591352578,3.6374046759061764,-0.3489827832880322,1022762774682328.0,-0.14172073,0.21794885,-0.011331636
-2.306413716010363,4.07352500198805,-0.3251961068471477,1022762806646911.0,-0.1698205,0.21794885,0.01676814
-2.6678761409534646,4.419151805246348,-0.3452950316874987,1022762841063838.0,-0.23212871,0.18007523,-0.034544498
-3.2834383336012793,4.90260957705979,-0.42204577053630543,1022762873023317.0,-0.4141664,0.30835682,-0.036987953
-4.122912858007384,5.457273697106948,-0.3859697446844196,1022762907441963.0,-0.37995797,0.21306193,0.0778546
-4.711787562493995,5.694769195750743,-0.17117073866786428,1022762939401130.0,-0.24801119,0.056680568,0.15604529
-5.08759997467955,5.791021213705544,0.1733425189670072,1022762973819255.0,-0.1490511,0.055458836,0.18170162
-5.362524953420215,5.911441810426674,0.5066164187686306,1022763005778630.0,-0.1612684,0.07744997,0.15238011
-5.770799835758757,6.077168769921271,0.7121797920347572,1022763040195817.0,-0.2687806,0.09577591,0.075411156
-6.4221495115869685,6.302133175950304,0.888518194744918,1022763074609724.0,-0.3396409,0.12998432,0.10839784
-6.983461763347237,6.551703659071053,1.1178421870762514,1022763106573630.0,-0.2651154,0.105549745,0.13283244
-7.50994906449687,6.717168117020755,1.3847430107848515,1022763140988786.0,-0.2565633,0.09577591,0.13038898
-7.960486400991677,6.932438632065798,1.6194919941252919,1022763172951130.0,-0.21868968,0.11288012,0.11817168
-8.32789882504706,7.135353057149387,1.8463178558059083,1022763207368213.0,-0.12950343,0.11288012,0.10839784
-8.423886462298636,7.401636029814256,2.0402918808290673,1022763239328474.0,-0.01343914,0.15564066,0.10595438
-8.616386529616074,7.767037816767214,2.2763052273247575,1022763273745505.0,-0.2113593,0.2326096,0.10473266
-9.227223731984502,8.261258077222001,2.4151543049976887,1022763305704932.0,-0.42760542,0.27659184,0.046089645
-10.194710624827508,8.778122226332666,2.492267796246524,1022763340120088.0,-0.438601,0.25215727,0.032650623
-10.727847914789702,9.261823904130903,2.546543808790722,1022763374541182.0,-0.15149456,0.21184021,0.039981
-11.102260305319053,9.519706888379117,2.6874053808803873,1022763406500869.0,-0.3115411,0.046906732,0.10717611
-12.081209672922702,9.543333965761725,2.924468728685518,1022763440917797.0,-0.59742576,0.045685,0.10351093
-12.93442164470305,9.900966860407113,3.054567811560878,1022763472873734.0,-0.21258104,0.28392226,0.027763706
-12.918759394174238,10.345468572111947,3.108668823929808,1022763507296026.0,0.09407305,0.12143222,0.08885017
-12.875359648488173,10.542451606033573,3.414642754573432,1022763539255140.0,-0.07696908,0.17396659,0.21591003
-13.252834568619827,11.033503275952405,3.8325684463399106,1022763573673317.0,-0.34086263,0.18984908,0.21591003
-14.036134124957316,11.416948641911455,4.206617318066563,1022763605628161.0,-0.3433061,0.14342335,0.12550205
-14.308609125494662,11.784712927943193,4.364055739175941,1022763640049724.0,0.030543119,0.16541448,0.0607504
-14.359971797049367,12.134120821498614,4.559604762439036,1022763672005661.0,-0.15393803,0.22283578,0.15115838
-15.002658992011728,12.539247575772656,4.923193001892931,1022763706427067.0,-0.46792248,0.253379,0.20857966
-15.816146020821707,13.002386778061476,5.188256325601838,1022763740841026.0,-0.32253668,0.2655963,0.0778546
-16.1629959465926,13.622519433555135,5.356505377128623,1022763772805505.0,-0.009773952,0.36455637,0.116949946
-15.99665882514788,14.2470959812205,5.616581204357968,1022763807222328.0,0.0965165,0.27537012,0.116949946
-15.90495911952379,14.805803686449039,5.863842681100468,1022763839178057.0,0.020769283,0.32301757,0.15726702
-15.909859348114031,15.390567780435191,6.250530894358119,1022763873599672.0,-0.023212973,0.22527924,0.2146883
-15.988521996991379,15.73393818350682,6.662904732519366,1022763905559047.0,-0.051312752,0.16419277,0.2269056
-15.968484746206157,16.13276494238605,7.071817930664928,1022763939978057.0,0.07452538,0.23627478,0.17437123
-15.73311016614879,16.53318530100975,7.302716923957743,1022763971936390.0,0.15515952,0.18740562,0.08396326
-15.547435555581927,16.94076205074746,7.490517818044325,1022764006355244.0,-0.0036653066,0.20573157,0.110841304
-15.636598195179689,17.32429492168577,7.691404340658537,1022764038314619.0,-0.039095458,0.18740562,0.0900719
-15.711235862457167,17.676921717917335,7.836417774347794,1022764072731755.0,-0.05253448,0.17152312,0.0693025
-15.66477363668668,18.10943594360708,7.864531301534104,1022764107152015.0,0.095294766,0.26193112,0.028985437
-15.610348901344357,18.654668676292122,7.587230725971086,1022764139109151.0,-0.021991245,0.34134352,-0.27400345
-15.625224121174845,19.228757773008443,6.9526198373754955,1022764173527953.0,0.019547556,0.21917057,-0.31432053
-15.542099407265292,19.51796571524813,6.44256947854905,1022764205487380.0,0.041538686,0.122653954,-0.2336864
-15.6176995762323,19.824830048231725,6.004395886588601,1022764239904515.0,-0.10751232,0.19351426,-0.20680836
-15.842749609944379,20.112550502367345,5.65770786092892,1022764271860974.0,-0.11728615,0.10310628,-0.16649128
-15.978287231845625,20.14842757042109,5.490696553862116,1022764306281911.0,-0.025656436,-0.049609892,0.0033291169
-15.98948745535799,20.115354696544117,5.821297327013186,1022764340700713.0,0.047647335,0.015141765,0.2892138
-15.779487853159042,20.120362890476585,6.231046174076181,1022764372655661.0,0.09407305,-0.015401471,0.16459739
-15.806875565446214,20.18240243788649,6.53032196224231,1022764407077432.0,-0.08796464,0.11654531,0.15238011
-15.988788131950335,20.422522923975933,6.840758383840635,1022764439037797.0,-0.086742915,0.079893425,0.16826259
-16.207188184083442,20.49068746262333,7.127696686844349,1022764473448786.0,-0.13805553,0.028580789,0.11817168
-16.397675738935973,20.678745502675056,7.324208213456357,1022764505414515.0,-0.019547787,0.17152312,0.075411156
-16.426725947351994,21.044847289355072,7.448834164692464,1022764539833213.0,-0.07574735,0.16297102,0.07052423
-16.65606346263321,21.243930317301214,7.595033233554931,1022764571787484.0,-0.11850787,0.056680568,0.0607504
-16.834126052196112,21.351557324231482,7.659546736986354,1022764606210817.0,-0.12705998,0.09455418,0.0106594935
-17.1585759901393,21.676115248962716,7.640020950143523,1022764638170349.0,-0.1734857,0.2326096,-0.021105472
-17.36638854955212,22.151591942859724,7.605134538457635,1022764672580557.0,-0.057421397,0.2411617,-0.0027795285
-17.508138666524204,22.644743614824474,7.666323044617988,1022764707006234.0,-0.09651675,0.23749653,0.06685905
-17.728113699636893,23.042538981633726,7.891272043811911,1022764738964984.0,-0.13561209,0.17641005,0.16704085
-18.0390011665031,23.435065749415326,8.30464774093358,1022764773379203.0,-0.14416419,0.21917057,0.2183535
-18.23631371847946,23.88536106280789,8.675196610444019,1022764805343526.0,-0.08185599,0.24604863,0.17437123
-18.513076219278695,24.339575272157873,9.025659854299617,1022764839761078.0,-0.23212871,0.18984908,0.18047988
-19.140275918131596,24.716527046728906,9.36964810999061,1022764874174984.0,-0.3689624,0.24971381,0.14749318
-19.956300439506332,25.32029722292682,9.752709474621984,1022764906133734.0,-0.49357882,0.32546103,0.31731358
-20.89473738091922,25.57579909792573,10.637447300299026,1022764940557119.0,-0.33108878,-0.030062221,0.5066817
-21.011199998656096,25.615807261869705,11.404633363312623,1022764972514932.0,0.107512064,0.15197545,0.31731358
-20.901037832187903,26.21754633491276,11.94470897163862,1022765006933786.0,-0.06963869,0.38410404,0.24156636
-21.216825282962716,26.778879046995893,12.401532770981317,1022765038894203.0,-0.21746796,0.18984908,0.27577478
-21.5556252246209,27.107443369082816,12.938283374874272,1022765073306547.0,-0.12217306,0.16785794,0.24400982
-21.870012672360637,27.49403873739456,13.303319753696202,1022765105264880.0,-0.24312426,0.253379,0.15482356
-22.393262461164937,27.983602911474406,13.575120570480737,1022765139689932.0,-0.2235766,0.22161403,0.12550205
-22.685949924385003,28.34823579837687,13.773819590223706,1022765171644880.0,-0.12950343,0.19595772,0.08640672
-22.99482489203595,28.796325010115197,13.95899549034725,1022765206213317.0,-0.13683382,0.25460073,0.18170162
-23.101750017516864,29.3223077481579,14.421331796850994,1022765238809411.0,0.039095223,0.30469164,0.26844442
-23.089587760681518,29.986784262359915,14.891144951195951,1022765273470922.0,-0.09407329,0.30591336,0.18658853
-23.28541281359601,30.443729569578412,15.172181397866128,1022765305672953.0,-0.030543353,0.21061847,0.1316107
-23.00970076380647,30.964724814579302,15.420142875338348,1022765338268369.0,0.31276262,0.3767737,0.12061514
-22.590226358310527,31.929413584950908,15.600681274691908,1022765373236755.0,0.046425603,0.5282681,0.058306944
-22.604664062142078,32.680096138688484,15.687205398049976,1022765405196963.0,-0.03298681,0.2582659,0.07052423
-22.692776719724755,33.04838542236691,15.933281230738421,1022765439618682.0,-0.07086042,0.22894442,0.1853668
-22.917914244521864,33.65661809610855,16.333405072960186,1022765471573942.0,-0.1698205,0.38410404,0.21957523
-23.282701669314346,34.30219463343667,16.723155786456054,1022765505996286.0,-0.124616526,0.22894442,0.16581912
-23.220051959209467,34.672321411385205,16.989006610574084,1022765540415192.0,0.13194667,0.19595772,0.13649762
-23.072089803384188,35.11850421993561,17.296293035549297,1022765572370140.0,0.018325828,0.22894442,0.17925815
-22.974877620750956,35.43971854811145,17.65375627524295,1022765606792015.0,0.10995553,0.087223805,0.16337568
-22.802590491327443,35.555851647435496,17.98038018408342,1022765638752536.0,0.0036650738,0.08111516,0.21224484
-23.07086549616677,35.985215871488755,18.46760582089568,1022765673165088.0,-0.20402893,0.33279142,0.23667943
-23.237815569665532,36.67989846425144,18.8182047053473,1022765705124828.0,0.067195006,0.32668278,0.143828
-22.941103557500345,37.20848761093871,19.135942986314237,1022765739549359.0,0.16371164,0.22650096,0.17437123
-22.724278963334186,37.701482876168356,19.516204349172643,1022765771503109.0,0.065973274,0.312022,0.20491447
-22.671691739937728,38.43412184445407,19.89668007487953,1022765805927588.0,0.0012216112,0.3853258,0.19025372
-22.61359202182773,39.09273587025264,20.269455802872724,1022765840343526.0,0.08674268,0.2411617,0.17803642
-22.39177992867532,39.50146872133782,20.582867219013803,1022765872298161.0,0.085520945,0.25460073,0.15726702
-22.40280514970625,40.15334524833119,20.88791800564425,1022765906722067.0,-0.051312752,0.32912624,0.14260627
-22.364392898236563,40.65815301396809,21.197041927038168,1022765938681078.0,0.103846885,0.22039232,0.18903199
-21.9896309479469,41.123742216733966,21.53490518726611,1022765973099672.0,0.23212847,0.29613954,0.14138454
-21.741831375456034,41.77283736236651,21.800366649320093,1022766005059828.0,-0.01466087,0.33034796,0.16215394
-21.876931496954924,42.13657664753267,22.122829923431212,1022766039477172.0,-0.004887034,0.024915598,0.143828
-21.53025701129062,42.1169973598619,22.394503880914122,1022766071432692.0,0.36407527,0.024915598,0.15360184
-20.796657869588863,42.403649213475376,22.656154708961715,1022766105854567.0,0.24923268,0.2411617,0.116949946
-20.06463623509491,47.81073771151463,25.95948018689779,1022766506581234.0,0.06352982,0.27659184,0.10961957
-19.848336640867267,48.17239559241517,26.095091763183206,1022766538540036.0,0.17348546,0.13364953,0.027763706
-19.41276224114795,48.46648494226906,26.097567818830054,1022766572954463.0,0.21013735,0.20695329,0.013102952
-19.196200142009282,48.943205221723076,26.217604411501956,1022766604919099.0,0.028099664,0.23871824,0.1022892
-19.142562918979287,49.24761956167807,26.39831780684819,1022766639336599.0,0.07819056,0.07011959,0.047311377
-18.90605083621421,49.404265124649996,26.428404477580948,1022766671291026.0,0.13072494,0.16785794,0.0192116
-18.704538752836182,49.905116791463655,26.54480543517555,1022766705714099.0,0.095294766,0.27170494,0.1022892
-18.45437670533077,50.23560610291643,26.798581266866847,1022766740128265.0,0.15515952,0.020028682,0.13649762
-18.10726471024002,50.01871448257177,27.10201769835669,1022766772089619.0,0.16859855,-0.19133052,0.18414506
-17.948015080660156,50.015304082429104,27.48135592164234,1022766806510401.0,-0.007330493,0.21428367,0.16581912
-18.066227699003797,50.540149328793525,27.779454855929664,1022766838465974.0,-0.057421397,0.23138788,0.12916724
-18.033502960112987,50.81306369406627,27.930505782322925,1022766872880765.0,0.072081916,0.11898876,0.028985437
-17.934453261365622,51.20412154703017,28.005042414437668,1022766904849619.0,0.025656201,0.26193112,0.06441559
-17.93532849489148,51.60216080191929,28.145943349730537,1022766939267119.0,-0.001221844,0.11043666,0.057085212
-17.806091322024386,51.6800564359635,28.21960498369049,1022766971221703.0,0.15882471,-0.033727415,0.031428892
-17.429054373696115,51.50724618137665,28.345980932668578,1022767005644932.0,0.14294223,-0.06060546,0.10717611
-17.464579576636563,51.70421061121543,28.595294267389104,1022767040062276.0,-0.16249013,0.21550539,0.098624006
-17.746854553227397,52.07024349828817,28.67070589722892,1022767072016911.0,-0.08918636,0.14097989,-0.014996827
-17.80364223850898,52.28663291353372,28.614469501925377,1022767106441130.0,0.009773719,0.09455418,-0.030879311
-17.801629957533354,52.4918409398077,28.581031227116572,1022767138400140.0,-0.0158826,0.12509742,0.0045508444
-17.85334264721461,52.6884553746531,28.659019717694765,1022767172814672.0,-0.05864313,0.06401094,0.079076335
-18.034292718319602,52.798200984417626,28.82394377173562,1022767204778890.0,-0.10751232,0.06401094,0.07663289
-18.154342853594933,53.025615386053566,28.99030718786081,1022767239191547.0,-1.1641532e-07,0.1666362,0.097402275
-18.05188066229565,53.25077338821903,29.18979370822776,1022767271151026.0,0.07941229,0.06278921,0.12061514
-17.988005948543147,53.36898788629397,29.407257076280693,1022767305574672.0,-0.030543353,0.06278921,0.08518499
-18.151543548281907,53.56945230846543,29.532058027806663,1022767339993265.0,-0.0781908,0.1580841,0.033872355
-18.192493728754826,53.91702271204792,29.591369674882255,1022767371948526.0,0.034208313,0.16297102,0.06441559
-18.03718160193677,54.046524698838795,29.747058094811905,1022767406370453.0,0.11606417,0.0053679273,0.053420026
-17.83243200485263,54.16178279942791,29.767082274639325,1022767438331130.0,0.089186125,0.13364953,-0.017440282
-17.666269891146225,54.46444713734375,29.7622958370858,1022767472746963.0,0.09773823,0.11654531,0.022876788
-17.425907818906477,54.53315527915021,29.775670024018346,1022767504708734.0,0.1624899,-0.021510117,-0.045540057
-16.999170917173494,54.46761993310057,29.602796217955557,1022767539125401.0,0.3323103,-0.077709675,-0.12617421
-16.119621831666628,54.24959081541965,29.36828309842107,1022767571086234.0,0.5229001,-0.0997008,-0.10296135
-15.396260150163045,54.21923043929609,29.194096790793093,1022767605505349.0,0.18203758,0.010254845,-0.077305034
-15.190110562720525,54.08649515017498,29.087285438200468,1022767639922744.0,0.1331684,-0.16078728,-0.032101035
-14.65749872375788,53.68384118505811,29.01237219562713,1022767671877328.0,0.42516172,-0.25119525,-0.06508773
-13.754762211034194,53.28405611473243,28.814823409714094,1022767706297588.0,0.365297,-0.06304892,-0.12861767
-13.411412714261454,53.31190178870454,28.504447854138547,1022767738260661.0,0.047647335,-0.014179744,-0.18237376
-13.188375633905302,53.039254118239946,28.221586636299058,1022767772675401.0,0.24434578,-0.23775625,-0.10540481
-12.420476484808614,52.485400269377074,28.01944848680843,1022767804640557.0,0.5888735,-0.3721465,-0.13106112
-11.021090333336529,51.589578116786996,27.595712397096456,1022767839057015.0,0.7024943,-0.47355002,-0.2593427
-9.924278958598732,50.72805592718762,27.26533872657491,1022767873471859.0,0.40561405,-0.38436377,-0.051648706
-9.153842336274607,50.05336468273937,27.220875460454018,1022767905431547.0,0.4948003,-0.34160325,-0.04798352
-7.909068559339675,49.46877975552053,27.043626656312043,1022767939854672.0,0.7318159,-0.23164758,-0.08952233
-6.616344799669754,49.105413252881945,26.938175938537903,1022767971810036.0,0.5803214,-0.17178285,-0.013775095
-5.708883281626542,48.743340652237734,26.953076982904047,1022768006231703.0,0.38117948,-0.1949957,0.027763706
-4.947196637269355,48.38653665133738,27.038988607503622,1022768038192328.0,0.48502645,-0.1778915,0.058306944
-3.861060236883075,48.17706392916632,27.191614529057176,1022768072610036.0,0.5693258,-0.0373926,0.1022892
-2.7544488151166364,48.078909712101414,27.456113490054076,1022768104570505.0,0.59742564,-0.11802674,0.16093221
-1.745312356773634,47.620412182718,27.681539350275248,1022768138983734.0,0.3616318,-0.28296024,0.05586348
-1.2770129870036853,47.26035207484327,27.76057783977078,1022768173401599.0,0.15638125,-0.05571854,0.027763706
-0.8831760316185857,47.137435374882564,27.741839552298586,1022768205366859.0,0.2944367,-0.14979172,-0.051648706
-0.2232518175003077,46.63055038800166,27.589178235131328,1022768239784359.0,0.3579666,-0.33060768,-0.09440924
0.43807240609882214,46.10163401795562,27.46867753045931,1022768271741078.0,0.32131472,-0.22187376,-0.033322766
0.9900217196161606,45.818311353515675,27.43422861861715,1022768306159932.0,0.24312404,-0.09603562,-0.0015578009
1.5235960617844804,45.42353237458509,27.418290329763796,1022768338121547.0,0.3579666,-0.35259882,-0.017440282
2.3717326129873753,44.72388504451561,27.335978956230203,1022768372537067.0,0.4618136,-0.24875179,-0.06264427
3.299669099412151,44.441962377166305,27.1618801547274,1022768406959099.0,0.47280917,-0.103365995,-0.12373075
4.231455602956804,44.12392083715848,26.964029507289144,1022768438919099.0,0.4984655,-0.25119525,-0.06508773
5.0830921499301365,43.482285957968564,26.903768117350936,1022768473341807.0,0.3286451,-0.3440467,-0.005222991
5.4783291033369315,42.98460706356657,26.904629813799204,1022768505304203.0,0.10995553,-0.16811764,-0.016218554
5.538791316171225,42.75185936164396,26.81208095192089,1022768539716390.0,-0.02809989,-0.12535712,-0.055313893
5.526716094690282,42.41612425001363,26.758032056552175,1022768574129672.0,0.052534252,-0.17178285,-0.016218554
5.78737815285504,42.13990768402808,26.651268840793843,1022768606093057.0,0.20280698,-0.13635269,-0.0883006
6.149977618272156,41.817822547021606,26.510857510828462,1022768640513682.0,0.12461629,-0.18277842,-0.04798352
6.315614751090886,41.483768522926276,26.433494274223843,1022768672466442.0,0.089186125,-0.19010878,-0.044318333
6.5384768204858394,41.058520954078205,26.38513287346462,1022768706890557.0,0.13194667,-0.23286933,0.0033291169
6.848488840069957,40.56110455814146,26.375232078809248,1022768738851182.0,0.20647216,-0.2902906,-0.016218554
7.3524006809131865,39.876157226637105,26.3245956821815,1022768773263890.0,0.28344113,-0.39658105,-0.024770662
7.963499936272178,39.038191129650635,26.289144908893707,1022768805229515.0,0.35185796,-0.4393416,-0.027214117
8.480186767836797,38.44503120864028,26.172971063819308,1022768839646963.0,0.11850763,-0.20721301,-0.08097021
8.590086441225546,37.913471233529634,26.032734738082876,1022768874066182.0,0.06963846,-0.32205558,-0.052870438
8.762373570949867,37.354892393671186,25.93043402258981,1022768906026442.0,0.07330365,-0.24875179,-0.08463541
8.83132327899922,36.90715736223968,25.674872784794523,1022768940443630.0,0.017104097,-0.24875179,-0.14205669
8.956272951461198,36.31515354973877,25.43764716918251,1022768972399515.0,0.11972936,-0.3733682,-0.10784827
9.259284960167117,35.59319374484226,25.26354836137717,1022769006821911.0,0.18448102,-0.35382053,-0.07363984
9.611121940523876,34.92541500342816,25.151797653436457,1022769038781859.0,0.16859855,-0.36359438,-0.04920525
9.882196472712796,34.25105515633621,25.063711286022205,1022769073195869.0,0.090407856,-0.2902906,-0.025992386
9.955258692050087,33.6701638237458,25.071485475906144,1022769105154880.0,0.010995447,-0.36970302,0.025320247
10.006358415654152,32.89211656936769,25.086561521493206,1022769139579411.0,0.052534252,-0.34649014,-0.038209684
10.19649552867784,32.28436276945404,24.898073370547426,1022769171534828.0,0.11972936,-0.32449904,-0.13716978
10.227032765743054,31.612540416359256,24.678474603688937,1022769205957797.0,-0.11606442,-0.32572076,-0.07119638
9.877820331009861,31.004855516052864,24.57463824671336,1022769240376130.0,-0.10751232,-0.30372962,-0.0797485
10.146444889364266,30.27320181458603,24.285437670705573,1022769272328369.0,0.45203978,-0.49431944,-0.22146912
11.472943600054254,29.32951718352403,23.881564056059773,1022769306754515.0,0.6548469,-0.34282497,-0.12861767
12.009492955415107,28.92878821694033,23.91838821684581,1022769338714359.0,-0.12705998,-0.17666975,0.15238011
11.258918360533881,28.515878158321577,24.263426466397792,1022769373151286.0,-0.43737927,-0.24997354,0.10961957
10.692181119483383,28.021349262691277,24.2449506739574,1022769405092744.0,-0.16249013,-0.2695212,-0.098074436
10.433006103088557,27.462576823974842,24.07505186365489,1022769439511078.0,-0.16249013,-0.29517752,-0.05409217
10.066293677327826,26.84377942871781,23.996590487903855,1022769473924307.0,-0.1490511,-0.31106,-0.025992386
9.93311857195192,26.235063127030887,23.971639706926435,1022769505889515.0,0.0073302602,-0.3855855,-0.011331636
9.969605808100766,25.373715930917495,23.947078287215216,1022769540307276.0,-0.01343914,-0.42834604,-0.00033607334
9.868280677012793,24.630512238251594,23.999302438304955,1022769572263213.0,-0.072082154,-0.36970302,0.04364619
9.78148051906157,23.93506490582818,24.066003439630045,1022769606686390.0,-0.03298681,-0.3440467,0.026541974
9.639205419124833,23.250311168884632,24.112277596301467,1022769638640609.0,-0.108734034,-0.40513316,0.006994307
9.390180399774842,22.455988925149903,24.119303648516826,1022769673059359.0,-0.11362096,-0.3648161,0.009437764
9.235217803925975,21.80413515102678,24.124015340452942,1022769705024567.0,-0.07574735,-0.32816422,-0.0015578009
9.135817653537867,21.10755031689833,24.05369145845632,1022769739438578.0,-0.019547787,-0.3892507,-0.050426982
9.070454975696627,20.344815546522565,23.96420509029883,1022769773856703.0,-0.06719524,-0.33305115,-0.034544498
8.91339238510705,19.818436676203273,23.91046683280797,1022769805820713.0,-0.08063426,-0.24753007,-0.016218554
8.927129640740969,19.201301773852194,23.867880426194393,1022769840239984.0,0.08674268,-0.38436377,-0.005222991
9.134766737200506,18.43456060253975,23.839517145845747,1022769872192953.0,0.102625154,-0.38314205,-0.033322766
9.230666419113673,17.84288818811135,23.743555785083224,1022769906618369.0,-0.004887034,-0.24019969,-0.06875292
9.275203663582692,17.335846798792513,23.58403010952267,1022769938578474.0,0.10629033,-0.32449904,-0.09318751
9.635528127738318,16.649586957773202,23.412381308496908,1022769972998682.0,0.18692449,-0.31961212,-0.051648706
9.912027676146488,16.138170574457522,23.324168081351324,1022770004956807.0,0.11850763,-0.24019969,-0.07241811
10.037502333535494,15.545623157505522,23.210094233667572,1022770039374880.0,-0.010995681,-0.40268973,-0.011331636
9.933027203890676,14.715969540088981,23.300730852150437,1022770071329724.0,-0.054977942,-0.42468083,0.08274153
10.023851888513287,13.966359753136159,23.367694353143985,1022770105753630.0,0.10629033,-0.3391598,-0.021105472
10.108201581402433,13.201437475019011,23.326945447074415,1022770140171755.0,-0.025656436,-0.47965866,-0.00400126
10.127888849340984,12.157496523523445,23.363682112531222,1022770172127588.0,0.09773823,-0.6006099,0.028985437
10.295275969099245,11.146349466036478,23.3987956411276,1022770206549776.0,-0.023212973,-0.36725956,-0.008888178
10.066463449244514,10.543233160733516,23.236119969946603,1022770238509724.0,-0.18081607,-0.3318294,-0.16038264
9.694851036137425,9.837985852184998,22.936371269864836,1022770272925922.0,-0.17226397,-0.36970302,-0.116400376
9.526325960402344,9.111057156037687,22.78874558751545,1022770304888265.0,0.040316954,-0.4307895,-0.06264427
9.859787949786277,8.209985006927159,22.681846737320395,1022770339307536.0,0.21013735,-0.43689814,-0.02354893
10.104962525592555,7.464768816478395,22.704145914613466,1022770371263057.0,0.041538686,-0.37947685,0.044867918
10.142762261473113,6.58557165239225,22.792021897440062,1022770405685297.0,0.04398215,-0.51264536,0.025320247
10.284161904817198,5.666124511879181,22.801760446737045,1022770440104515.0,0.06352982,-0.3819203,-0.010109909
10.261061707703139,5.051545710329657,22.76289717721498,1022770472057172.0,-0.09529502,-0.2817385,-0.03576622
9.999524200823906,4.490235758994939,22.643660838133286,1022770506482953.0,-0.13072516,-0.29639924,-0.06630946
9.83231162307302,3.8580694750463653,22.566472598760363,1022770538442953.0,-0.039095458,-0.36848128,-0.0064447187
9.92059881548896,3.1232471765977947,22.558798661973256,1022770572855974.0,0.12339456,-0.36970302,-0.008888178
10.163498389890512,2.465705909705805,22.565347851834964,1022770604821859.0,0.0965165,-0.31961212,0.020433329
10.183798139943125,1.9060584584390154,22.577361400210464,1022770639237276.0,-0.057421397,-0.2817385,-0.017440282
10.042135540698611,1.321142137444863,22.583648091339057,1022770671194099.0,-0.07086042,-0.32938594,0.03753754
9.995235348424595,0.6496697928079627,22.652624090623977,1022770705612224.0,0.017104097,-0.33793804,-0.0064447187
10.035660082135662,0.02019740601067238,22.570050216999373,1022770740036130.0,0.017104097,-0.28296024,-0.04798352
10.040034861373607,-0.4935814742351927,22.525499451259236,1022770771992015.0,-0.026878163,-0.26585603,0.0106594935
9.961984695784887,-1.0120164487341705,22.57802546509459,1022770806414619.0,-0.029321622,-0.25608218,0.013102952
9.953234487159463,-1.513807836519176,22.535137196626355,1022770838374724.0,0.0073302602,-0.26219082,-0.04676179
9.876321820898006,-1.9607553790007102,22.508825776743812,1022770872787067.0,-0.08429945,-0.2438649,0.025320247
9.608571831338146,-2.357634354963837,22.639887362609983,1022770904753682.0,-0.22602007,-0.13635269,0.1022892
8.919772185153162,-2.4676196646443183,22.776850800154417,1022770939167744.0,-0.45814866,0.024915598,-0.025992386
8.132097632670233,-2.387099035462509,22.595537639678597,1022770971137953.0,-0.2724458,-0.009292826,-0.14205669
8.201134839897646,-2.727384158926383,22.40218884969275,1022771005550505.0,0.26878035,-0.2902906,-0.024770662
8.542559338352072,-3.0660756763432477,22.44067551319664,1022771037511390.0,0.012217178,-0.06671411,0.035094082
8.251796854757572,-3.163198498258542,22.477451538989,1022771071921442.0,-0.22846352,-0.033727415,0.0033291169
7.923846900130983,-3.1990713696256248,22.487977587510507,1022771106335192.0,-0.05253448,-0.022731848,0.01798987
7.948784164647272,-3.2201381545448506,22.51438926164152,1022771138308213.0,0.017104097,0.00048100948,-0.0076664463
7.830571528040599,-3.24288603662477,22.466027861598487,1022771172721182.0,-0.12095133,-0.034949146,-0.030879311
7.468496619092674,-3.2874028001229574,22.336164665519007,1022771204687484.0,-0.26755887,-0.0019624457,-0.12250902
6.926346821185617,-3.2930006956669273,22.048665951063487,1022771239104359.0,-0.28221962,0.09699764,-0.11762211
6.472134491137205,-3.018230234333046,21.849152798400688,1022771271059151.0,-0.14416419,0.13120607,-0.12373075
6.441159283829916,-2.9446406976148376,21.578804067947193,1022771305484203.0,0.05619944,-0.04472298,-0.12617421
6.326796646080091,-2.869126169224621,21.47505520587685,1022771339901442.0,-0.2113593,0.13853642,0.013102952
5.766621893160075,-2.561193227983947,21.512054369953603,1022771371857432.0,-0.32131496,0.1446451,0.0033291169
5.3475845185991995,-2.429153740170017,21.444705485078057,1022771406280140.0,-0.08307772,0.06889786,-0.060200818
5.314071830341673,-2.140120795140549,21.261992325721096,1022771438240192.0,0.013438909,0.19229254,-0.13472632
5.342859072529695,-1.909381396734873,21.119830996080005,1022771472653265.0,-0.007330493,0.009033117,0.020433329
5.217208961168522,-1.9566981604948537,21.23225509787959,1022771504619411.0,-0.10262539,0.010254845,0.054641757
5.096546328167122,-1.7432837447338267,21.258093633208084,1022771539038005.0,-0.02809989,0.13975817,-0.0027795285
4.998896194070502,-1.6043131634106482,21.231917852615226,1022771570998057.0,-0.06719524,0.012698308,-0.012553364
4.854258576433861,-1.728298457060962,21.279281369588052,1022771605415869.0,-0.085521184,-0.07282276,0.07663289
4.677595989333075,-1.7940088041453028,21.427007298781866,1022771639835140.0,-0.07696908,0.010254845,0.03753754
4.646883297321667,-1.7592506350745205,21.460418966914602,1022771671789567.0,0.061086357,0.0017027408,0.01676814
4.843145391699326,-1.8777234386522563,21.524844970559194,1022771706213838.0,0.067195006,-0.08015313,0.048533108
4.8370201817208756,-1.942715185443233,21.630006577912233,1022771738173838.0,-0.054977942,-0.0129580125,0.04242446
4.709095054702649,-1.9705380619904584,21.677107596398326,1022771772591547.0,-0.042760644,-0.033727415,0.0033291169
4.686344858538539,-2.0245923172575937,21.619694341006543,1022771804552849.0,0.028099664,-0.0044059083,-0.056535624
